CV Measurement
:Program Version
13.8.2003 Moll, 4.2008 Fahrer, 6.2011 Gabrysch
:Program Library
CVIV.llb
:start
14/04/2018 00:50:04
:stop
14/04/2018 00:58:11
:elapsed [s]
487.0
:gpib bus delay [ms]
50
:device
W332-M12
:tester
Isidre
:environment
Probe Station (28-2-019)
:comment
fluence:9.66e13, SET:003138
:annealing time [min]
0
:material
n FZ
:temperature [C]
20.00
:ToolID
1102
:GuardRingConnection
1
:Region
0
:Instruments
V source: Keithley 237
- current compilance [A]: 1.000E-3
- integration time: 4 ms
- filter (averaging): 8
- source range: 1.1V
LCR meter: Agilent E4980A
- Frequency: 10000 Hz
- Signal level: 500 mV
- Averaging: 10
:LCR open correction: C[F] , G[S]
4.224E-11, 9.657E-9
:ramp up step [V], delay [s], down step [V], delay[s]
2.0, 1.0, 20.0, 0.5
:set voltage start [V], voltage stop [V], number of steps
0.0, 1000.0, 200
:measured voltage start [V], voltage stop [V], number of steps
0.0, 350.0, 59
:step mode
voltages from file
:legend
V_detector [V]	Capacitance [F]	Conductivity [S]	Bias [V]	Current Power Supply [A]
BEGIN
1.121214E-1	2.012196E-11	1.195364E-5	0.000000E+0	-9.183500E-7
2.910918E-1	2.572926E-11	1.072614E-5	5.000000E-1	1.711100E-6
5.311500E-1	3.429486E-11	9.014673E-6	1.000000E+0	3.840200E-6
8.436442E-1	4.376746E-11	7.099473E-6	1.500000E+0	5.376000E-6
1.191789E+0	4.826506E-11	5.697663E-6	2.000000E+0	6.619800E-6
1.994772E+0	4.701606E-11	4.548253E-6	3.000000E+0	8.233500E-6
2.828791E+0	4.426656E-11	3.921173E-6	4.000000E+0	9.593000E-6
3.676422E+0	4.148026E-11	3.490503E-6	5.000000E+0	1.084100E-5
4.522345E+0	3.877496E-11	3.137233E-6	6.000000E+0	1.210300E-5
5.387069E+0	3.656906E-11	2.869973E-6	7.000000E+0	1.321100E-5
6.262049E+0	3.465336E-11	2.646533E-6	8.000000E+0	1.423500E-5
7.136296E+0	3.299906E-11	2.459203E-6	9.000000E+0	1.526500E-5
8.012985E+0	3.144636E-11	2.288863E-6	1.000000E+1	1.627500E-5
9.794688E+0	2.900976E-11	2.033793E-6	1.200000E+1	1.806300E-5
1.158799E+1	2.693466E-11	1.829313E-6	1.400000E+1	1.975600E-5
1.340412E+1	2.516636E-11	1.666563E-6	1.600000E+1	2.126200E-5
1.522807E+1	2.337776E-11	1.516663E-6	1.800000E+1	2.270400E-5
1.707399E+1	2.148986E-11	1.373053E-6	2.000000E+1	2.396600E-5
2.174948E+1	1.590546E-11	9.050888E-7	2.500000E+1	2.662400E-5
2.654302E+1	1.234906E-11	4.857878E-7	3.000000E+1	2.831500E-5
3.141324E+1	1.086776E-11	2.723548E-7	3.500000E+1	2.937800E-5
3.632118E+1	1.021486E-11	1.696958E-7	4.000000E+1	3.013200E-5
4.125257E+1	9.895363E-12	1.172288E-7	4.500000E+1	3.069400E-5
4.619323E+1	9.717063E-12	8.695891E-8	5.000000E+1	3.118000E-5
5.114367E+1	9.606963E-12	6.806531E-8	5.500000E+1	3.158600E-5
5.610203E+1	9.532163E-12	5.527871E-8	6.000000E+1	3.192700E-5
6.106443E+1	9.480263E-12	4.640051E-8	6.500000E+1	3.223500E-5
6.603244E+1	9.440863E-12	3.987341E-8	7.000000E+1	3.249700E-5
7.099997E+1	9.410363E-12	3.477541E-8	7.500000E+1	3.276300E-5
7.597298E+1	9.386463E-12	3.089081E-8	8.000000E+1	3.298400E-5
8.094673E+1	9.367363E-12	2.772671E-8	8.500000E+1	3.319900E-5
8.592000E+1	9.351163E-12	2.511761E-8	9.000000E+1	3.341800E-5
9.089607E+1	9.337963E-12	2.303391E-8	9.500000E+1	3.361400E-5
9.587617E+1	9.326663E-12	2.121991E-8	1.000000E+2	3.377700E-5
1.058331E+2	9.308763E-12	1.839081E-8	1.100000E+2	3.413000E-5
1.157945E+2	9.295363E-12	1.634511E-8	1.200000E+2	3.444600E-5
1.257618E+2	9.284763E-12	1.474121E-8	1.300000E+2	3.471400E-5
1.357309E+2	9.275963E-12	1.353151E-8	1.400000E+2	3.496700E-5
1.457023E+2	9.268363E-12	1.270261E-8	1.500000E+2	3.520100E-5
1.556739E+2	9.263663E-12	1.194151E-8	1.600000E+2	3.543400E-5
1.656480E+2	9.258563E-12	1.142761E-8	1.700000E+2	3.564600E-5
1.756205E+2	9.254263E-12	1.108421E-8	1.800000E+2	3.587100E-5
1.855921E+2	9.250363E-12	1.086621E-8	1.900000E+2	3.610400E-5
1.955600E+2	9.246463E-12	1.072111E-8	2.000000E+2	3.636700E-5
2.055172E+2	9.241763E-12	1.062341E-8	2.100000E+2	3.671700E-5
2.154536E+2	9.236163E-12	1.057011E-8	2.200000E+2	3.723800E-5
2.253597E+2	9.229463E-12	1.058811E-8	2.300000E+2	3.800700E-5
2.352133E+2	9.220863E-12	1.061431E-8	2.400000E+2	3.920600E-5
2.449965E+2	9.211963E-12	1.065621E-8	2.500000E+2	4.098200E-5
2.546923E+2	9.202063E-12	1.078801E-8	2.600000E+2	4.347400E-5
2.642779E+2	9.191263E-12	1.084931E-8	2.700000E+2	4.686800E-5
2.737512E+2	9.179063E-12	1.089971E-8	2.800000E+2	5.118200E-5
2.831188E+2	9.167163E-12	1.102411E-8	2.900000E+2	5.636200E-5
2.923638E+2	9.155863E-12	1.111251E-8	3.000000E+2	6.254600E-5
3.015016E+2	9.145763E-12	1.122531E-8	3.100000E+2	6.960800E-5
3.105164E+2	9.137163E-12	1.141311E-8	3.200000E+2	7.767700E-5
3.194098E+2	9.131363E-12	1.161861E-8	3.300000E+2	8.674100E-5
3.282073E+2	9.130663E-12	1.109871E-8	3.400000E+2	9.659000E-5
3.368619E+2	9.127163E-12	1.126571E-8	3.500000E+2	1.076100E-4
END
