CV Measurement
:Program Version
13.8.2003 Moll, 4.2008 Fahrer, 6.2011 Gabrysch
:Program Library
CVIV.llb
:start
13/04/2018 22:28:01
:stop
13/04/2018 22:36:13
:elapsed [s]
491.9
:gpib bus delay [ms]
50
:device
W332-M4
:tester
Isidre
:environment
Probe Station (28-2-019)
:comment
fluence: 1.09e12
:annealing time [min]
0
:material
n FZ
:temperature [C]
20.00
:ToolID
1102
:GuardRingConnection
1
:Region
0
:Instruments
V source: Keithley 237
- current compilance [A]: 1.000E-3
- integration time: 4 ms
- filter (averaging): 8
- source range: 1.1V
LCR meter: Agilent E4980A
- Frequency: 10000 Hz
- Signal level: 500 mV
- Averaging: 10
:LCR open correction: C[F] , G[S]
4.224E-11, 9.657E-9
:ramp up step [V], delay [s], down step [V], delay[s]
2.0, 1.0, 20.0, 0.5
:set voltage start [V], voltage stop [V], number of steps
0.0, 1000.0, 200
:measured voltage start [V], voltage stop [V], number of steps
0.0, 350.0, 59
:step mode
voltages from file
:legend
V_detector [V]	Capacitance [F]	Conductivity [S]	Bias [V]	Current Power Supply [A]
BEGIN
4.400856E-1	1.812983E-10	3.824253E-6	0.000000E+0	-3.604600E-6
5.188776E-1	1.674313E-10	7.443388E-7	5.000000E-1	-1.546200E-7
9.973115E-1	1.297113E-10	1.824798E-7	1.000000E+0	2.202100E-8
1.496078E+0	1.108703E-10	1.289698E-7	1.500000E+0	3.212300E-8
1.995656E+0	9.728326E-11	9.525781E-8	2.000000E+0	3.558400E-8
2.994946E+0	8.254326E-11	6.636561E-8	3.000000E+0	4.139900E-8
3.993735E+0	7.317326E-11	5.145391E-8	4.000000E+0	5.131600E-8
4.993564E+0	6.650726E-11	4.227641E-8	5.000000E+0	5.271800E-8
5.992709E+0	6.110526E-11	3.562441E-8	6.000000E+0	5.972200E-8
6.992298E+0	5.711586E-11	3.122291E-8	7.000000E+0	6.308300E-8
7.991556E+0	5.384766E-11	2.792281E-8	8.000000E+0	6.916200E-8
8.991028E+0	5.111186E-11	2.544451E-8	9.000000E+0	7.348500E-8
9.990131E+0	4.860136E-11	2.430941E-8	1.000000E+1	8.083200E-8
1.198953E+1	4.432556E-11	5.361141E-8	1.200000E+1	8.579500E-8
1.398829E+1	3.965846E-11	2.609731E-8	1.400000E+1	9.587800E-8
1.598795E+1	3.717476E-11	1.508871E-8	1.600000E+1	9.872000E-8
1.798737E+1	3.504946E-11	1.341541E-8	1.800000E+1	1.034600E-7
1.998642E+1	3.331176E-11	1.213161E-8	2.000000E+1	1.112400E-7
2.498487E+1	2.982396E-11	9.788609E-9	2.500000E+1	1.239200E-7
2.998328E+1	2.727816E-11	8.262409E-9	3.000000E+1	1.369400E-7
3.498185E+1	2.529966E-11	7.118409E-9	3.500000E+1	1.486900E-7
3.998079E+1	2.367526E-11	6.217609E-9	4.000000E+1	1.573700E-7
4.498026E+1	2.234836E-11	5.543809E-9	4.500000E+1	1.617000E-7
4.997965E+1	2.122316E-11	4.999509E-9	5.000000E+1	1.666800E-7
5.497795E+1	2.025426E-11	4.512409E-9	5.500000E+1	1.805900E-7
5.997590E+1	1.939716E-11	4.161309E-9	6.000000E+1	1.974300E-7
6.497492E+1	1.865156E-11	3.833109E-9	6.500000E+1	2.053900E-7
6.997335E+1	1.798776E-11	3.530809E-9	7.000000E+1	2.182600E-7
7.497416E+1	1.738136E-11	3.286209E-9	7.500000E+1	2.116800E-7
7.997312E+1	1.684166E-11	3.069609E-9	8.000000E+1	2.201500E-7
8.497117E+1	1.634966E-11	2.867509E-9	8.500000E+1	2.361700E-7
8.997071E+1	1.589346E-11	2.700409E-9	9.000000E+1	2.399200E-7
9.496962E+1	1.547866E-11	2.540209E-9	9.500000E+1	2.488100E-7
9.996922E+1	1.509636E-11	2.408209E-9	1.000000E+2	2.521500E-7
1.099670E+2	1.440626E-11	2.171109E-9	1.100000E+2	2.705300E-7
1.199649E+2	1.380446E-11	1.943309E-9	1.200000E+2	2.876400E-7
1.299645E+2	1.327766E-11	1.774509E-9	1.300000E+2	2.903700E-7
1.399634E+2	1.280546E-11	1.625709E-9	1.400000E+2	3.001400E-7
1.499609E+2	1.238346E-11	1.494009E-9	1.500000E+2	3.199600E-7
1.599590E+2	1.200166E-11	1.376809E-9	1.600000E+2	3.354200E-7
1.699576E+2	1.165336E-11	1.286109E-9	1.700000E+2	3.473200E-7
1.799567E+2	1.133706E-11	1.197909E-9	1.800000E+2	3.546800E-7
1.899554E+2	1.104386E-11	1.100809E-9	1.900000E+2	3.655700E-7
1.999545E+2	1.077346E-11	1.008909E-9	2.000000E+2	3.722700E-7
2.099532E+2	1.052476E-11	9.672087E-10	2.100000E+2	3.832000E-7
2.199520E+2	1.029196E-11	8.757087E-10	2.200000E+2	3.927800E-7
2.299508E+2	1.007636E-11	8.334087E-10	2.300000E+2	4.032900E-7
2.399480E+2	9.873163E-12	7.312087E-10	2.400000E+2	4.256300E-7
2.499474E+2	9.682963E-12	6.583087E-10	2.500000E+2	4.311700E-7
2.599465E+2	9.507463E-12	5.641087E-10	2.600000E+2	4.385000E-7
2.699446E+2	9.356363E-12	3.361587E-10	2.700000E+2	4.537100E-7
2.799442E+2	9.255263E-12	3.072867E-11	2.800000E+2	4.571800E-7
2.899409E+2	9.205963E-12	-1.509413E-10	2.900000E+2	4.844500E-7
2.999365E+2	9.182663E-12	-2.308013E-10	3.000000E+2	5.198700E-7
3.099288E+2	9.170263E-12	-2.985613E-10	3.100000E+2	5.832400E-7
3.199177E+2	9.162863E-12	-3.394213E-10	3.200000E+2	6.743000E-7
3.299025E+2	9.157863E-12	-3.858713E-10	3.300000E+2	7.985200E-7
3.398782E+2	9.158563E-12	-9.889613E-10	3.400000E+2	9.979000E-7
3.498416E+2	9.155563E-12	-1.002661E-9	3.500000E+2	1.297100E-6
END
