CV Measurement
:Program Version
13.8.2003 Moll, 4.2008 Fahrer, 6.2011 Gabrysch
:Program Library
CVIV.llb
:start
15/04/2018 17:15:49
:stop
15/04/2018 17:23:56
:elapsed [s]
487.0
:gpib bus delay [ms]
50
:device
W332-M4
:tester
Isidre
:environment
Probe Station (28-2-019)
:comment
fluence:1.09e12, SET:003135
:annealing time [min]
80
:material
n FZ
:temperature [C]
20.00
:ToolID
1102
:GuardRingConnection
1
:Region
0
:Instruments
V source: Keithley 237
- current compilance [A]: 1.000E-3
- integration time: 4 ms
- filter (averaging): 8
- source range: 1.1V
LCR meter: Agilent E4980A
- Frequency: 10000 Hz
- Signal level: 500 mV
- Averaging: 10
:LCR open correction: C[F] , G[S]
4.175E-11, 9.743E-9
:ramp up step [V], delay [s], down step [V], delay[s]
2.0, 1.0, 20.0, 0.5
:set voltage start [V], voltage stop [V], number of steps
0.0, 1000.0, 200
:measured voltage start [V], voltage stop [V], number of steps
0.0, 350.0, 59
:step mode
voltages from file
:legend
V_detector [V]	Capacitance [F]	Conductivity [S]	Bias [V]	Current Power Supply [A]
BEGIN
4.451157E-1	1.851407E-10	3.728087E-6	0.000000E+0	-3.645800E-6
5.198189E-1	1.710507E-10	7.142659E-7	5.000000E-1	-1.623300E-7
9.975875E-1	1.321997E-10	1.689799E-7	1.000000E+0	1.976000E-8
1.497063E+0	1.129837E-10	1.200059E-7	1.500000E+0	2.405800E-8
1.997047E+0	9.912469E-11	8.822090E-8	2.000000E+0	2.418900E-8
2.996606E+0	8.413169E-11	6.135700E-8	3.000000E+0	2.779800E-8
3.996448E+0	7.460769E-11	4.749180E-8	4.000000E+0	2.909200E-8
4.995837E+0	6.783869E-11	3.895770E-8	5.000000E+0	3.409500E-8
5.995128E+0	6.234669E-11	3.280210E-8	6.000000E+0	3.990600E-8
6.994935E+0	5.830269E-11	2.867170E-8	7.000000E+0	4.148200E-8
7.994430E+0	5.498619E-11	2.562050E-8	8.000000E+0	4.562100E-8
8.994893E+0	5.220909E-11	2.323460E-8	9.000000E+0	4.183200E-8
9.993962E+0	4.966759E-11	2.182700E-8	1.000000E+1	4.945500E-8
1.199294E+1	4.546699E-11	4.525380E-8	1.200000E+1	5.785900E-8
1.399270E+1	4.068949E-11	3.008700E-8	1.400000E+1	5.975800E-8
1.599235E+1	3.814469E-11	1.413730E-8	1.600000E+1	6.267800E-8
1.799194E+1	3.598529E-11	1.262490E-8	1.800000E+1	6.605500E-8
1.999107E+1	3.422969E-11	1.048790E-8	2.000000E+1	7.314200E-8
2.498947E+1	3.069009E-11	8.636397E-9	2.500000E+1	8.627900E-8
2.998856E+1	2.811159E-11	6.935897E-9	3.000000E+1	9.368300E-8
3.498744E+1	2.610749E-11	6.072897E-9	3.500000E+1	1.028900E-7
3.998735E+1	2.446129E-11	5.337097E-9	4.000000E+1	1.035900E-7
4.498710E+1	2.311579E-11	4.830197E-9	4.500000E+1	1.056800E-7
4.998612E+1	2.197449E-11	4.288197E-9	5.000000E+1	1.136700E-7
5.498636E+1	2.099309E-11	3.924597E-9	5.500000E+1	1.116800E-7
5.998556E+1	2.012439E-11	3.554297E-9	6.000000E+1	1.183000E-7
6.498391E+1	1.936879E-11	3.237797E-9	6.500000E+1	1.318200E-7
6.998442E+1	1.869649E-11	2.995497E-9	7.000000E+1	1.276300E-7
7.498440E+1	1.808199E-11	2.761297E-9	7.500000E+1	1.277400E-7
7.998340E+1	1.753469E-11	2.583297E-9	8.000000E+1	1.360000E-7
8.498192E+1	1.703619E-11	2.411797E-9	8.500000E+1	1.480500E-7
8.998148E+1	1.657399E-11	2.242997E-9	9.000000E+1	1.516900E-7
9.498064E+1	1.615399E-11	2.098097E-9	9.500000E+1	1.585500E-7
9.998105E+1	1.576649E-11	1.973697E-9	1.000000E+2	1.552000E-7
1.099795E+2	1.506769E-11	1.751697E-9	1.100000E+2	1.680200E-7
1.199790E+2	1.445829E-11	1.575497E-9	1.200000E+2	1.722600E-7
1.299785E+2	1.392439E-11	1.417397E-9	1.300000E+2	1.763600E-7
1.399768E+2	1.344599E-11	1.288897E-9	1.400000E+2	1.901800E-7
1.499772E+2	1.301869E-11	1.177297E-9	1.500000E+2	1.870900E-7
1.599749E+2	1.263149E-11	1.047497E-9	1.600000E+2	2.058300E-7
1.699739E+2	1.227829E-11	9.991967E-10	1.700000E+2	2.140800E-7
1.799747E+2	1.195789E-11	8.888967E-10	1.800000E+2	2.069500E-7
1.899732E+2	1.166069E-11	8.091967E-10	1.900000E+2	2.196000E-7
1.999719E+2	1.138659E-11	7.433967E-10	2.000000E+2	2.302900E-7
2.099706E+2	1.113399E-11	6.878967E-10	2.100000E+2	2.411600E-7
2.199707E+2	1.089799E-11	6.174967E-10	2.200000E+2	2.402100E-7
2.299695E+2	1.067889E-11	5.493967E-10	2.300000E+2	2.495700E-7
2.399696E+2	1.047269E-11	4.792967E-10	2.400000E+2	2.489600E-7
2.499683E+2	1.027929E-11	4.266967E-10	2.500000E+2	2.597200E-7
2.599668E+2	1.009929E-11	3.748967E-10	2.600000E+2	2.722100E-7
2.699664E+2	9.932787E-12	3.043967E-10	2.700000E+2	2.750900E-7
2.799666E+2	9.798887E-12	8.189667E-11	2.800000E+2	2.737700E-7
2.899667E+2	9.720387E-12	-1.536533E-10	2.900000E+2	2.727000E-7
2.999655E+2	9.683287E-12	-2.877933E-10	3.000000E+2	2.822600E-7
3.099659E+2	9.664687E-12	-3.448033E-10	3.100000E+2	2.792100E-7
3.199656E+2	9.654087E-12	-3.141933E-10	3.200000E+2	2.821000E-7
3.299643E+2	9.647487E-12	-2.247633E-10	3.300000E+2	2.925000E-7
3.399651E+2	9.642687E-12	-2.243333E-12	3.400000E+2	2.859500E-7
3.499644E+2	9.639187E-12	2.050467E-10	3.500000E+2	2.912400E-7
END
