CV Measurement
:Program Version
13.8.2003 Moll, 4.2008 Fahrer, 6.2011 Gabrysch
:Program Library
CVIV.llb
:start
14/04/2018 00:12:43
:stop
14/04/2018 00:20:50
:elapsed [s]
487.2
:gpib bus delay [ms]
50
:device
W332-F8
:tester
Isidre
:environment
Probe Station (28-2-019)
:comment
fluence:2.41e13, SET:003137
:annealing time [min]
0
:material
n FZ
:temperature [C]
20.00
:ToolID
1102
:GuardRingConnection
1
:Region
0
:Instruments
V source: Keithley 237
- current compilance [A]: 1.000E-3
- integration time: 4 ms
- filter (averaging): 8
- source range: 1.1V
LCR meter: Agilent E4980A
- Frequency: 10000 Hz
- Signal level: 500 mV
- Averaging: 10
:LCR open correction: C[F] , G[S]
4.224E-11, 9.657E-9
:ramp up step [V], delay [s], down step [V], delay[s]
2.0, 1.0, 20.0, 0.5
:set voltage start [V], voltage stop [V], number of steps
0.0, 1000.0, 200
:measured voltage start [V], voltage stop [V], number of steps
0.0, 350.0, 59
:step mode
voltages from file
:legend
V_detector [V]	Capacitance [F]	Conductivity [S]	Bias [V]	Current Power Supply [A]
BEGIN
3.592742E-1	1.077683E-10	9.435523E-6	0.000000E+0	-2.942700E-6
5.017296E-1	1.099873E-10	5.988973E-6	5.000000E-1	-1.416700E-8
8.709631E-1	9.811726E-11	2.563733E-6	1.000000E+0	1.056900E-6
1.353492E+0	8.576726E-11	1.839953E-6	1.500000E+0	1.200000E-6
1.834312E+0	7.650926E-11	1.441643E-6	2.000000E+0	1.357100E-6
2.808758E+0	6.599626E-11	1.088523E-6	3.000000E+0	1.566400E-6
3.787405E+0	5.895926E-11	8.995158E-7	4.000000E+0	1.741300E-6
4.768017E+0	5.367306E-11	7.803568E-7	5.000000E+0	1.900100E-6
5.749947E+0	4.906666E-11	6.923918E-7	6.000000E+0	2.048100E-6
6.734650E+0	4.534816E-11	6.285368E-7	7.000000E+0	2.173400E-6
7.719340E+0	4.199996E-11	5.639648E-7	8.000000E+0	2.298800E-6
8.705092E+0	3.920606E-11	4.881068E-7	9.000000E+0	2.415500E-6
9.688951E+0	3.702426E-11	4.244298E-7	1.000000E+1	2.547700E-6
1.166397E+1	3.396556E-11	3.663338E-7	1.200000E+1	2.752300E-6
1.363931E+1	3.149806E-11	3.235758E-7	1.400000E+1	2.954300E-6
1.561802E+1	2.957146E-11	2.921138E-7	1.600000E+1	3.128700E-6
1.759637E+1	2.790836E-11	2.662058E-7	1.800000E+1	3.306000E-6
1.957753E+1	2.654566E-11	2.458158E-7	2.000000E+1	3.460300E-6
2.453241E+1	2.379326E-11	2.068288E-7	2.500000E+1	3.829900E-6
2.948870E+1	2.178236E-11	1.800598E-7	3.000000E+1	4.187900E-6
3.445144E+1	2.021816E-11	1.603018E-7	3.500000E+1	4.493100E-6
3.941620E+1	1.893586E-11	1.446788E-7	4.000000E+1	4.781700E-6
4.438218E+1	1.788916E-11	1.323718E-7	4.500000E+1	5.060400E-6
4.935162E+1	1.700166E-11	1.222648E-7	5.000000E+1	5.310700E-6
5.432188E+1	1.623846E-11	1.137968E-7	5.500000E+1	5.554300E-6
5.929528E+1	1.556156E-11	1.064428E-7	6.000000E+1	5.772100E-6
6.426686E+1	1.497106E-11	1.001158E-7	6.500000E+1	6.004900E-6
6.924097E+1	1.444266E-11	9.449681E-8	7.000000E+1	6.217000E-6
7.421543E+1	1.395536E-11	8.931651E-8	7.500000E+1	6.426200E-6
7.919197E+1	1.351696E-11	8.461151E-8	8.000000E+1	6.618300E-6
8.416942E+1	1.311016E-11	8.015431E-8	8.500000E+1	6.803000E-6
8.914703E+1	1.272516E-11	7.583601E-8	9.000000E+1	6.986400E-6
9.412641E+1	1.236606E-11	7.167791E-8	9.500000E+1	7.155300E-6
9.910651E+1	1.202316E-11	6.742461E-8	1.000000E+2	7.318300E-6
1.090704E+2	1.135526E-11	5.820411E-8	1.100000E+2	7.614200E-6
1.190373E+2	1.071106E-11	4.670131E-8	1.200000E+2	7.885500E-6
1.290105E+2	1.014486E-11	3.318781E-8	1.300000E+2	8.104600E-6
1.389896E+2	9.723163E-12	2.080231E-8	1.400000E+2	8.275800E-6
1.489734E+2	9.472963E-12	1.208531E-8	1.500000E+2	8.408400E-6
1.589602E+2	9.347963E-12	7.142309E-9	1.600000E+2	8.516300E-6
1.689490E+2	9.295463E-12	4.638709E-9	1.700000E+2	8.608800E-6
1.789412E+2	9.273663E-12	3.471109E-9	1.800000E+2	8.672000E-6
1.889339E+2	9.262963E-12	2.889409E-9	1.900000E+2	8.731900E-6
1.989267E+2	9.256363E-12	2.532709E-9	2.000000E+2	8.791200E-6
2.089199E+2	9.252163E-12	2.314409E-9	2.100000E+2	8.847100E-6
2.189139E+2	9.249363E-12	2.164309E-9	2.200000E+2	8.896200E-6
2.289067E+2	9.246763E-12	2.049609E-9	2.300000E+2	8.955100E-6
2.389029E+2	9.244963E-12	1.961809E-9	2.400000E+2	8.986000E-6
2.488963E+2	9.246263E-12	1.968109E-9	2.500000E+2	9.040000E-6
2.588889E+2	9.244863E-12	1.907109E-9	2.600000E+2	9.101000E-6
2.688539E+2	9.242663E-12	1.887809E-9	2.700000E+2	9.387000E-6
2.787089E+2	9.238363E-12	1.865609E-9	2.800000E+2	1.057500E-5
2.882708E+2	9.230563E-12	1.864509E-9	2.900000E+2	1.416300E-5
2.972110E+2	9.221963E-12	1.880809E-9	3.000000E+2	2.284400E-5
3.055474E+2	9.215163E-12	1.924809E-9	3.100000E+2	3.647000E-5
3.132389E+2	9.203663E-12	1.886709E-9	3.200000E+2	5.537800E-5
3.201365E+2	9.194863E-12	1.937109E-9	3.300000E+2	8.078900E-5
3.265420E+2	9.195763E-12	1.189409E-9	3.400000E+2	1.102300E-4
3.325704E+2	9.194863E-12	1.210209E-9	3.500000E+2	1.427600E-4
END
