CV Measurement
:Program Version
13.8.2003 Moll, 4.2008 Fahrer, 6.2011 Gabrysch
:Program Library
CVIV.llb
:start
15/04/2018 21:30:21
:stop
15/04/2018 21:38:28
:elapsed [s]
487.2
:gpib bus delay [ms]
50
:device
W332-F8
:tester
Isidre
:environment
Probe Station (28-2-019)
:comment
fluence:2.41e13, SET:003137
:annealing time [min]
80
:material
n FZ
:temperature [C]
20.00
:ToolID
1102
:GuardRingConnection
1
:Region
0
:Instruments
V source: Keithley 237
- current compilance [A]: 1.000E-3
- integration time: 4 ms
- filter (averaging): 8
- source range: 1.1V
LCR meter: Agilent E4980A
- Frequency: 10000 Hz
- Signal level: 500 mV
- Averaging: 10
:LCR open correction: C[F] , G[S]
4.223E-11, 9.221E-9
:ramp up step [V], delay [s], down step [V], delay[s]
2.0, 1.0, 20.0, 0.5
:set voltage start [V], voltage stop [V], number of steps
0.0, 1000.0, 200
:measured voltage start [V], voltage stop [V], number of steps
0.0, 350.0, 59
:step mode
voltages from file
:legend
V_detector [V]	Capacitance [F]	Conductivity [S]	Bias [V]	Current Power Supply [A]
BEGIN
4.159606E-1	1.302919E-10	8.669929E-6	0.000000E+0	-3.407000E-6
5.379163E-1	1.288239E-10	5.084619E-6	5.000000E-1	-3.105600E-7
9.252858E-1	1.076229E-10	1.926179E-6	1.000000E+0	6.119600E-7
1.414184E+0	9.305394E-11	1.353659E-6	1.500000E+0	7.028900E-7
1.905261E+0	8.248694E-11	1.038179E-6	2.000000E+0	7.759800E-7
2.889472E+0	7.086994E-11	7.611170E-7	3.000000E+0	9.053000E-7
3.877409E+0	6.325994E-11	6.135470E-7	4.000000E+0	1.004100E-6
4.865725E+0	5.769694E-11	5.215170E-7	5.000000E+0	1.099800E-6
5.857155E+0	5.305124E-11	4.559240E-7	6.000000E+0	1.170000E-6
6.848242E+0	4.946934E-11	4.153140E-7	7.000000E+0	1.243000E-6
7.839513E+0	4.632474E-11	3.882560E-7	8.000000E+0	1.314500E-6
8.831699E+0	4.338324E-11	3.651500E-7	9.000000E+0	1.378500E-6
9.822799E+0	4.039794E-11	3.232500E-7	1.000000E+1	1.451400E-6
1.180823E+1	3.662714E-11	2.439360E-7	1.200000E+1	1.570700E-6
1.379286E+1	3.391074E-11	2.124750E-7	1.400000E+1	1.696600E-6
1.578098E+1	3.179684E-11	1.897280E-7	1.600000E+1	1.793900E-6
1.776874E+1	2.998054E-11	1.712410E-7	1.800000E+1	1.894200E-6
1.975859E+1	2.849654E-11	1.568070E-7	2.000000E+1	1.977300E-6
2.473298E+1	2.550954E-11	1.296420E-7	2.500000E+1	2.187100E-6
2.970900E+1	2.333524E-11	1.114070E-7	3.000000E+1	2.383500E-6
3.468636E+1	2.164714E-11	9.815504E-8	3.500000E+1	2.568900E-6
3.966730E+1	2.026094E-11	8.784304E-8	4.000000E+1	2.725000E-6
4.464810E+1	1.913174E-11	7.994894E-8	4.500000E+1	2.882300E-6
4.962927E+1	1.817634E-11	7.348734E-8	5.000000E+1	3.036500E-6
5.461011E+1	1.735514E-11	6.806074E-8	5.500000E+1	3.193500E-6
5.959246E+1	1.662954E-11	6.344784E-8	6.000000E+1	3.338000E-6
6.457430E+1	1.599864E-11	5.957054E-8	6.500000E+1	3.486800E-6
6.955951E+1	1.543754E-11	5.622414E-8	7.000000E+1	3.607900E-6
7.454171E+1	1.492524E-11	5.323354E-8	7.500000E+1	3.753700E-6
7.952694E+1	1.446904E-11	5.062694E-8	8.000000E+1	3.874700E-6
8.451120E+1	1.405384E-11	4.826044E-8	8.500000E+1	4.003600E-6
8.949604E+1	1.366794E-11	4.608184E-8	9.000000E+1	4.127800E-6
9.448179E+1	1.331644E-11	4.413884E-8	9.500000E+1	4.244500E-6
9.946818E+1	1.299194E-11	4.236374E-8	1.000000E+2	4.356000E-6
1.094405E+2	1.239874E-11	3.904384E-8	1.100000E+2	4.582600E-6
1.194177E+2	1.187454E-11	3.597124E-8	1.200000E+2	4.769700E-6
1.293908E+2	1.140504E-11	3.298044E-8	1.300000E+2	4.989800E-6
1.393701E+2	1.096774E-11	2.968164E-8	1.400000E+2	5.159000E-6
1.493465E+2	1.055504E-11	2.578564E-8	1.500000E+2	5.352800E-6
1.593282E+2	1.015434E-11	2.091994E-8	1.600000E+2	5.502800E-6
1.693113E+2	9.794040E-12	1.520614E-8	1.700000E+2	5.640700E-6
1.792983E+2	9.525140E-12	9.975743E-9	1.800000E+2	5.747500E-6
1.892867E+2	9.364140E-12	6.214943E-9	1.900000E+2	5.842300E-6
1.992764E+2	9.286840E-12	4.088843E-9	2.000000E+2	5.926500E-6
2.092667E+2	9.253040E-12	3.063543E-9	2.100000E+2	6.006300E-6
2.192605E+2	9.236740E-12	2.561143E-9	2.200000E+2	6.056800E-6
2.292516E+2	9.227540E-12	2.342643E-9	2.300000E+2	6.129600E-6
2.392444E+2	9.221740E-12	2.182743E-9	2.400000E+2	6.188700E-6
2.492380E+2	9.217240E-12	2.088943E-9	2.500000E+2	6.241600E-6
2.592314E+2	9.214440E-12	2.072843E-9	2.600000E+2	6.295500E-6
2.692234E+2	9.212140E-12	2.056543E-9	2.700000E+2	6.360800E-6
2.792162E+2	9.210440E-12	2.043843E-9	2.800000E+2	6.419800E-6
2.892093E+2	9.208640E-12	2.060943E-9	2.900000E+2	6.476000E-6
2.992018E+2	9.207040E-12	2.110843E-9	3.000000E+2	6.537400E-6
3.091924E+2	9.205940E-12	2.159843E-9	3.100000E+2	6.614700E-6
3.191830E+2	9.204840E-12	2.252643E-9	3.200000E+2	6.691900E-6
3.291738E+2	9.203840E-12	2.319843E-9	3.300000E+2	6.767000E-6
3.391586E+2	9.202740E-12	2.437943E-9	3.400000E+2	6.891400E-6
3.491423E+2	9.201940E-12	2.511343E-9	3.500000E+2	7.024900E-6
END
