CV Measurement
:Program Version
13.8.2003 Moll, 4.2008 Fahrer, 6.2011 Gabrysch
:Program Library
CVIV.llb
:start
23/11/2017 18:41:12
:stop
23/11/2017 18:49:24
:elapsed [s]
491.5
:gpib bus delay [ms]
50
:device
W332-F8
:tester
Isidre
:environment
Probe Station (28-2-019)
:comment
unirrad
:annealing time [min]
0
:material
n FZ
:temperature [C]
20.00
:ToolID
1102
:GuardRingConnection
1
:Region
0
:Instruments
V source: Keithley 237
- current compilance [A]: 1.000E-3
- integration time: 4 ms
- filter (averaging): 8
- source range: 1.1V
LCR meter: Agilent E4980A
- Frequency: 1000 Hz
- Signal level: 500 mV
- Averaging: 10
:LCR open correction: C[F] , G[S]
4.245E-11, -4.868E-10
:ramp up step [V], delay [s], down step [V], delay[s]
2.0, 1.0, 20.0, 0.5
:set voltage start [V], voltage stop [V], number of steps
0.0, 100.0, 20
:measured voltage start [V], voltage stop [V], number of steps
0.0, 350.0, 59
:step mode
voltages from file
:legend
V_detector [V]	Capacitance [F]	Conductivity [S]	Bias [V]	Current Power Supply [A]
BEGIN
3.586882E-1	3.571500E-9	4.383687E-6	0.000000E+0	-2.937900E-6
4.928008E-1	1.882396E-10	2.131862E-8	5.000000E-1	5.896600E-8
9.984210E-1	1.346276E-10	6.756444E-9	1.000000E+0	1.293300E-8
1.502005E+0	1.142426E-10	5.902054E-9	1.500000E+0	-1.642000E-8
2.003756E+0	9.974658E-11	5.379314E-9	2.000000E+0	-3.076600E-8
3.004641E+0	8.413958E-11	4.817164E-9	3.000000E+0	-3.801000E-8
3.997847E+0	7.434958E-11	4.166054E-9	4.000000E+0	1.763700E-8
4.993334E+0	6.745958E-11	3.559834E-9	5.000000E+0	5.459500E-8
6.001341E+0	6.184058E-11	3.575304E-9	6.000000E+0	-1.098600E-8
6.998877E+0	5.771058E-11	3.873944E-9	7.000000E+0	9.200000E-9
8.004171E+0	5.432518E-11	3.263224E-9	8.000000E+0	-3.416200E-8
9.002947E+0	5.154378E-11	3.122924E-9	9.000000E+0	-2.413400E-8
9.993948E+0	4.896148E-11	3.025814E-9	1.000000E+1	4.957300E-8
1.199777E+1	4.501118E-11	4.427674E-9	1.200000E+1	1.827800E-8
1.400188E+1	4.038738E-11	6.661264E-9	1.400000E+1	-1.540800E-8
1.599816E+1	3.759468E-11	2.699564E-9	1.600000E+1	1.504400E-8
1.799673E+1	3.541008E-11	2.476734E-9	1.800000E+1	2.678400E-8
2.000234E+1	3.366948E-11	2.315674E-9	2.000000E+1	-1.919500E-8
2.500152E+1	3.008248E-11	2.356134E-9	2.500000E+1	-1.243900E-8
3.000293E+1	2.747978E-11	3.077774E-9	3.000000E+1	-2.401800E-8
3.499832E+1	2.548038E-11	2.232064E-9	3.500000E+1	1.379400E-8
4.000411E+1	2.384318E-11	2.008154E-9	4.000000E+1	-3.368900E-8
4.499789E+1	2.249098E-11	1.946144E-9	4.500000E+1	1.729400E-8
4.999263E+1	2.133908E-11	2.671234E-9	5.000000E+1	6.037400E-8
5.500199E+1	2.038048E-11	2.195694E-9	5.500000E+1	-1.628600E-8
5.999873E+1	1.949488E-11	1.939284E-9	6.000000E+1	1.040700E-8
6.499111E+1	1.878718E-11	1.494204E-9	6.500000E+1	7.280400E-8
7.000250E+1	1.805948E-11	2.026094E-9	7.000000E+1	-2.048900E-8
7.500305E+1	1.744498E-11	2.343014E-9	7.500000E+1	-2.495500E-8
8.000419E+1	1.690558E-11	1.798004E-9	8.000000E+1	-3.429600E-8
8.499330E+1	1.642578E-11	2.033424E-9	8.500000E+1	5.484000E-8
9.000263E+1	1.594168E-11	1.978784E-9	9.000000E+1	-2.152100E-8
9.499712E+1	1.553098E-11	1.674834E-9	9.500000E+1	2.362900E-8
1.000051E+2	1.517828E-11	1.482067E-9	1.000000E+2	-4.182300E-8
1.099973E+2	1.444478E-11	1.790494E-9	1.100000E+2	2.201600E-8
1.200021E+2	1.387518E-11	1.393636E-9	1.200000E+2	-1.732100E-8
1.299967E+2	1.330628E-11	1.822664E-9	1.300000E+2	2.680000E-8
1.400060E+2	1.283588E-11	1.542114E-9	1.400000E+2	-4.938100E-8
1.499935E+2	1.240858E-11	1.647244E-9	1.500000E+2	5.286400E-8
1.599986E+2	1.200358E-11	1.754214E-9	1.600000E+2	1.121500E-8
1.700052E+2	1.167518E-11	1.497944E-9	1.700000E+2	-4.276000E-8
1.799987E+2	1.134748E-11	1.452617E-9	1.800000E+2	1.051800E-8
1.899961E+2	1.106348E-11	1.769484E-9	1.900000E+2	3.188700E-8
1.999976E+2	1.078088E-11	1.558724E-9	2.000000E+2	1.983900E-8
2.100025E+2	1.052628E-11	1.401838E-9	2.100000E+2	-2.079500E-8
2.199969E+2	1.030298E-11	2.304864E-9	2.200000E+2	2.526400E-8
2.300023E+2	1.007218E-11	1.780294E-9	2.300000E+2	-1.900100E-8
2.400032E+2	9.834177E-12	1.767944E-9	2.400000E+2	-2.659400E-8
2.500015E+2	9.640877E-12	1.552374E-9	2.500000E+2	-1.262100E-8
2.599985E+2	9.473977E-12	1.512304E-9	2.600000E+2	1.192500E-8
2.699961E+2	9.330677E-12	1.291725E-9	2.700000E+2	3.206400E-8
2.799922E+2	9.216277E-12	2.149264E-9	2.800000E+2	6.417100E-8
2.899987E+2	9.146077E-12	1.317217E-9	2.900000E+2	1.103300E-8
3.000024E+2	9.125577E-12	1.779744E-9	3.000000E+2	-1.990000E-8
3.099935E+2	9.119777E-12	1.467886E-9	3.100000E+2	5.345000E-8
3.199946E+2	9.092477E-12	1.687514E-9	3.200000E+2	4.441400E-8
3.300019E+2	9.093377E-12	1.746594E-9	3.300000E+2	-1.546100E-8
3.399950E+2	9.099777E-12	1.300989E-9	3.400000E+2	4.119800E-8
3.499971E+2	9.103677E-12	1.378049E-9	3.500000E+2	2.358900E-8
END
