CV Measurement
:Program Version
13.8.2003 Moll, 4.2008 Fahrer, 6.2011 Gabrysch
:Program Library
CVIV.llb
:start
23/11/2017 20:03:55
:stop
23/11/2017 20:12:06
:elapsed [s]
491.5
:gpib bus delay [ms]
50
:device
W332-M7
:tester
Isidre
:environment
Probe Station (28-2-019)
:comment
unirrad
:annealing time [min]
0
:material
n FZ
:temperature [C]
20.00
:ToolID
1102
:GuardRingConnection
1
:Region
0
:Instruments
V source: Keithley 237
- current compilance [A]: 1.000E-3
- integration time: 4 ms
- filter (averaging): 8
- source range: 1.1V
LCR meter: Agilent E4980A
- Frequency: 1000 Hz
- Signal level: 500 mV
- Averaging: 10
:LCR open correction: C[F] , G[S]
4.245E-11, -4.868E-10
:ramp up step [V], delay [s], down step [V], delay[s]
2.0, 1.0, 20.0, 0.5
:set voltage start [V], voltage stop [V], number of steps
0.0, 100.0, 20
:measured voltage start [V], voltage stop [V], number of steps
0.0, 350.0, 59
:step mode
voltages from file
:legend
V_detector [V]	Capacitance [F]	Conductivity [S]	Bias [V]	Current Power Supply [A]
BEGIN
3.639137E-1	3.961300E-9	3.857917E-6	0.000000E+0	-2.980700E-6
5.017238E-1	1.935076E-10	2.307252E-8	5.000000E-1	-1.411900E-8
9.983327E-1	1.378416E-10	6.454954E-9	1.000000E+0	1.365600E-8
1.502215E+0	1.170296E-10	6.078264E-9	1.500000E+0	-1.814200E-8
1.998736E+0	1.021396E-10	5.259424E-9	2.000000E+0	1.035000E-8
2.991386E+0	8.619158E-11	4.492924E-9	3.000000E+0	7.055500E-8
4.002319E+0	7.616658E-11	4.176374E-9	4.000000E+0	-1.899200E-8
4.997921E+0	6.906158E-11	3.910094E-9	5.000000E+0	1.703200E-8
5.998516E+0	6.334258E-11	3.740714E-9	6.000000E+0	1.215500E-8
6.997416E+0	5.916758E-11	3.052004E-9	7.000000E+0	2.116200E-8
8.002926E+0	5.567508E-11	3.338064E-9	8.000000E+0	-2.396800E-8
8.998135E+0	5.277478E-11	3.293874E-9	9.000000E+0	1.527700E-8
1.000266E+1	5.015178E-11	3.174214E-9	1.000000E+1	-2.176700E-8
1.199632E+1	4.615828E-11	3.369004E-9	1.200000E+1	3.012300E-8
1.400385E+1	4.169618E-11	7.186264E-9	1.400000E+1	-3.151400E-8
1.599677E+1	3.850438E-11	2.631824E-9	1.600000E+1	2.645800E-8
1.800170E+1	3.628048E-11	2.450934E-9	1.800000E+1	-1.389100E-8
1.999824E+1	3.448018E-11	2.625534E-9	2.000000E+1	1.442800E-8
2.499261E+1	3.082248E-11	2.716534E-9	2.500000E+1	6.051400E-8
2.999790E+1	2.818318E-11	2.608054E-9	3.000000E+1	1.719600E-8
3.500201E+1	2.611218E-11	2.655684E-9	3.500000E+1	-1.645900E-8
3.999757E+1	2.443048E-11	1.843914E-9	4.000000E+1	1.993700E-8
4.499875E+1	2.304198E-11	2.201164E-9	4.500000E+1	1.024000E-8
4.999456E+1	2.187458E-11	2.095014E-9	5.000000E+1	4.456900E-8
5.499776E+1	2.088608E-11	1.716014E-9	5.500000E+1	1.836000E-8
6.000182E+1	2.001198E-11	1.591514E-9	6.000000E+1	-1.490400E-8
6.499853E+1	1.920218E-11	1.972934E-9	6.500000E+1	1.208100E-8
6.999472E+1	1.854668E-11	1.718554E-9	7.000000E+1	4.326600E-8
7.499830E+1	1.788728E-11	2.325434E-9	7.500000E+1	1.394000E-8
8.000674E+1	1.731878E-11	1.943714E-9	8.000000E+1	-5.517100E-8
8.500254E+1	1.684378E-11	2.739024E-9	8.500000E+1	-2.080300E-8
8.999457E+1	1.634768E-11	1.905654E-9	9.000000E+1	4.446700E-8
9.500259E+1	1.591418E-11	2.281024E-9	9.500000E+1	-2.124500E-8
9.999775E+1	1.550378E-11	2.086364E-9	1.000000E+2	1.840900E-8
1.100019E+2	1.481628E-11	1.538354E-9	1.100000E+2	-1.533500E-8
1.199971E+2	1.416908E-11	1.805014E-9	1.200000E+2	2.358600E-8
1.300036E+2	1.364898E-11	1.598404E-9	1.300000E+2	-2.979400E-8
1.400069E+2	1.312078E-11	1.912694E-9	1.400000E+2	-5.636200E-8
1.500035E+2	1.270128E-11	1.751704E-9	1.500000E+2	-2.835500E-8
1.600028E+2	1.229198E-11	1.861814E-9	1.600000E+2	-2.303000E-8
1.699932E+2	1.196888E-11	1.289304E-9	1.700000E+2	5.543600E-8
1.799910E+2	1.161138E-11	1.604234E-9	1.800000E+2	7.377200E-8
1.899980E+2	1.130078E-11	1.697454E-9	1.900000E+2	1.598900E-8
1.999969E+2	1.101878E-11	1.682604E-9	2.000000E+2	2.525700E-8
2.100029E+2	1.076258E-11	1.568254E-9	2.100000E+2	-2.391700E-8
2.200023E+2	1.052188E-11	1.506364E-9	2.200000E+2	-1.843100E-8
2.299961E+2	1.031808E-11	1.485226E-9	2.300000E+2	3.188800E-8
2.400020E+2	1.007738E-11	1.697524E-9	2.400000E+2	-1.600800E-8
2.500043E+2	9.906477E-12	1.267621E-9	2.500000E+2	-3.526900E-8
2.599945E+2	9.698077E-12	1.534824E-9	2.600000E+2	4.475600E-8
2.699961E+2	9.540277E-12	1.300522E-9	2.700000E+2	3.195500E-8
2.799976E+2	9.362977E-12	1.579494E-9	2.800000E+2	1.925200E-8
2.900055E+2	9.248777E-12	1.346428E-9	2.900000E+2	-4.485400E-8
3.000029E+2	9.150777E-12	1.295211E-9	3.000000E+2	-2.335800E-8
3.100019E+2	9.113777E-12	2.199184E-9	3.100000E+2	-1.583700E-8
3.199938E+2	9.085777E-12	1.598924E-9	3.200000E+2	5.082800E-8
3.299935E+2	9.096577E-12	1.387983E-9	3.300000E+2	5.334800E-8
3.400039E+2	9.056877E-12	1.633444E-9	3.400000E+2	-3.199200E-8
3.499976E+2	9.067177E-12	1.566194E-9	3.500000E+2	2.000000E-8
END
