CV Measurement
:Program Version
13.8.2003 Moll, 4.2008 Fahrer, 6.2011 Gabrysch
:Program Library
CVIV.llb
:start
23/11/2017 16:00:12
:stop
23/11/2017 16:08:25
:elapsed [s]
493.0
:gpib bus delay [ms]
50
:device
W332-F2
:tester
Isidre
:environment
Probe Station (28-2-019)
:comment
unirrad
:annealing time [min]
0
:material
n FZ
:temperature [C]
20.00
:ToolID
1102
:GuardRingConnection
1
:Region
0
:Instruments
V source: Keithley 237
- current compilance [A]: 1.000E-3
- integration time: 4 ms
- filter (averaging): 8
- source range: 1.1V
LCR meter: Agilent E4980A
- Frequency: 1000 Hz
- Signal level: 500 mV
- Averaging: 10
:LCR open correction: C[F] , G[S]
4.245E-11, -4.868E-10
:ramp up step [V], delay [s], down step [V], delay[s]
2.0, 1.0, 20.0, 0.5
:set voltage start [V], voltage stop [V], number of steps
0.0, 100.0, 20
:measured voltage start [V], voltage stop [V], number of steps
0.0, 350.0, 59
:step mode
voltages from file
:legend
V_detector [V]	Capacitance [F]	Conductivity [S]	Bias [V]	Current Power Supply [A]
BEGIN
3.056157E-1	1.476470E-9	2.652457E-6	0.000000E+0	-2.503200E-6
4.999828E-1	1.745696E-10	4.436612E-8	5.000000E-1	1.405200E-10
9.999734E-1	1.326746E-10	1.821002E-8	1.000000E+0	2.180600E-10
1.499970E+0	1.133076E-10	1.287422E-8	1.500000E+0	2.429900E-10
1.999985E+0	9.922958E-11	1.028978E-8	2.000000E+0	1.225700E-10
2.999970E+0	8.402258E-11	7.549664E-9	3.000000E+0	2.483400E-10
3.999981E+0	7.435658E-11	6.583514E-9	4.000000E+0	1.591200E-10
4.999979E+0	6.750358E-11	5.643424E-9	5.000000E+0	1.734200E-10
5.999972E+0	6.196258E-11	5.041334E-9	6.000000E+0	2.302300E-10
6.999990E+0	5.787558E-11	4.583264E-9	7.000000E+0	8.416000E-11
7.999980E+0	5.452888E-11	4.051864E-9	8.000000E+0	1.677400E-10
8.999964E+0	5.173488E-11	3.849124E-9	9.000000E+0	2.912100E-10
9.999966E+0	4.917588E-11	3.349944E-9	1.000000E+1	2.781900E-10
1.199997E+1	4.519638E-11	4.221224E-9	1.200000E+1	2.222000E-10
1.399998E+1	4.050668E-11	4.406874E-9	1.400000E+1	1.879100E-10
1.599998E+1	3.790698E-11	2.354674E-9	1.600000E+1	1.418900E-10
1.799997E+1	3.573368E-11	2.153174E-9	1.800000E+1	2.513000E-10
1.999997E+1	3.395388E-11	2.065294E-9	2.000000E+1	2.580400E-10
2.499998E+1	3.039708E-11	1.765934E-9	2.500000E+1	1.790300E-10
2.999996E+1	2.779848E-11	1.614714E-9	3.000000E+1	3.529600E-10
3.499997E+1	2.577808E-11	1.451956E-9	3.500000E+1	2.586700E-10
3.999995E+1	2.412458E-11	1.310354E-9	4.000000E+1	3.919700E-10
4.499995E+1	2.276778E-11	1.286385E-9	4.500000E+1	3.906600E-10
4.999995E+1	2.162128E-11	1.229821E-9	5.000000E+1	3.736400E-10
5.499994E+1	2.063338E-11	1.380613E-9	5.500000E+1	4.873900E-10
5.999995E+1	1.973858E-11	2.409944E-9	6.000000E+1	4.073500E-10
6.499976E+1	1.898668E-11	1.439614E-9	6.500000E+1	1.942600E-9
6.999994E+1	1.831608E-11	2.322394E-9	7.000000E+1	4.734300E-10
7.499994E+1	1.769058E-11	3.532174E-9	7.500000E+1	4.606900E-10
7.999994E+1	1.640078E-11	2.189342E-8	8.000000E+1	4.915900E-10
8.499992E+1	1.571308E-11	2.396162E-8	8.500000E+1	6.764500E-10
8.999997E+1	1.457828E-11	3.023952E-8	9.000000E+1	2.271600E-10
9.499993E+1	1.518918E-11	1.870932E-8	9.500000E+1	5.865300E-10
9.999995E+1	1.514948E-11	1.038613E-8	1.000000E+2	4.406000E-10
1.099996E+2	1.434288E-11	1.323542E-8	1.100000E+2	3.181600E-9
1.199995E+2	1.361858E-11	1.526332E-8	1.200000E+2	4.247300E-9
1.299998E+2	1.326068E-11	1.175732E-8	1.300000E+2	1.912900E-9
1.399999E+2	1.288908E-11	9.007024E-9	1.400000E+2	4.658300E-10
1.499994E+2	1.241398E-11	9.151524E-9	1.500000E+2	4.577500E-9
1.599995E+2	1.210158E-11	6.648254E-9	1.600000E+2	4.275200E-9
1.699995E+2	1.170288E-11	8.302174E-9	1.700000E+2	4.311300E-9
1.799994E+2	1.122338E-11	1.169392E-8	1.800000E+2	4.515700E-9
1.899987E+2	1.093308E-11	1.048648E-8	1.900000E+2	1.032300E-8
1.999992E+2	1.092618E-11	3.447334E-9	2.000000E+2	6.171000E-9
2.099986E+2	1.062838E-11	3.136304E-9	2.100000E+2	1.138300E-8
2.199998E+2	1.043068E-11	2.451234E-9	2.200000E+2	1.854500E-9
2.299987E+2	1.019738E-11	1.018211E-9	2.300000E+2	1.068300E-8
2.399981E+2	9.979877E-12	1.436180E-9	2.400000E+2	1.578300E-8
2.499995E+2	9.793977E-12	1.358960E-9	2.500000E+2	3.840400E-9
2.599988E+2	9.611777E-12	1.285262E-9	2.600000E+2	9.474000E-9
2.699988E+2	9.437477E-12	1.259571E-9	2.700000E+2	9.645000E-9
2.799979E+2	9.302977E-12	1.142280E-9	2.800000E+2	1.752700E-8
2.899994E+2	9.194877E-12	2.804274E-9	2.900000E+2	4.935200E-9
2.999989E+2	9.157977E-12	2.417694E-9	3.000000E+2	9.168000E-9
3.099982E+2	9.105477E-12	4.428774E-9	3.100000E+2	1.467500E-8
3.199988E+2	9.085877E-12	4.875834E-9	3.200000E+2	9.945000E-9
3.299985E+2	9.051777E-12	5.862074E-9	3.300000E+2	1.221800E-8
3.399992E+2	9.059677E-12	5.522274E-9	3.400000E+2	6.734000E-9
3.499989E+2	9.052477E-12	5.576174E-9	3.500000E+2	9.354000E-9
END
