CV Measurement
:Program Version
13.8.2003 Moll, 4.2008 Fahrer, 6.2011 Gabrysch
:Program Library
CVIV.llb
:start
14/04/2018 00:31:40
:stop
14/04/2018 00:39:47
:elapsed [s]
487.0
:gpib bus delay [ms]
50
:device
W332-F2
:tester
Isidre
:environment
Probe Station (28-2-019)
:comment
fluence:9.66e13, SET:003138
:annealing time [min]
0
:material
n FZ
:temperature [C]
20.00
:ToolID
1102
:GuardRingConnection
1
:Region
0
:Instruments
V source: Keithley 237
- current compilance [A]: 1.000E-3
- integration time: 4 ms
- filter (averaging): 8
- source range: 1.1V
LCR meter: Agilent E4980A
- Frequency: 10000 Hz
- Signal level: 500 mV
- Averaging: 10
:LCR open correction: C[F] , G[S]
4.224E-11, 9.657E-9
:ramp up step [V], delay [s], down step [V], delay[s]
2.0, 1.0, 20.0, 0.5
:set voltage start [V], voltage stop [V], number of steps
0.0, 1000.0, 200
:measured voltage start [V], voltage stop [V], number of steps
0.0, 350.0, 59
:step mode
voltages from file
:legend
V_detector [V]	Capacitance [F]	Conductivity [S]	Bias [V]	Current Power Supply [A]
BEGIN
1.100263E-1	2.027226E-11	1.188014E-5	0.000000E+0	-9.011900E-7
2.919831E-1	2.601606E-11	1.064514E-5	5.000000E-1	1.703800E-6
5.321267E-1	3.471896E-11	8.920733E-6	1.000000E+0	3.832200E-6
8.474045E-1	4.420226E-11	7.006143E-6	1.500000E+0	5.345200E-6
1.197270E+0	4.842536E-11	5.635623E-6	2.000000E+0	6.574900E-6
2.005565E+0	4.701986E-11	4.509443E-6	3.000000E+0	8.145100E-6
2.841976E+0	4.421566E-11	3.890233E-6	4.000000E+0	9.485000E-6
3.692660E+0	4.139716E-11	3.462543E-6	5.000000E+0	1.070800E-5
4.541024E+0	3.867866E-11	3.109913E-6	6.000000E+0	1.195000E-5
5.406970E+0	3.647236E-11	2.843073E-6	7.000000E+0	1.304800E-5
6.279386E+0	3.456736E-11	2.621133E-6	8.000000E+0	1.409300E-5
7.161080E+0	3.292176E-11	2.435423E-6	9.000000E+0	1.506200E-5
8.038624E+0	3.138316E-11	2.267383E-6	1.000000E+1	1.606500E-5
9.821182E+0	2.897056E-11	2.016413E-6	1.200000E+1	1.784600E-5
1.161680E+1	2.691486E-11	1.815373E-6	1.400000E+1	1.952000E-5
1.343526E+1	2.516896E-11	1.655773E-6	1.600000E+1	2.100700E-5
1.526152E+1	2.341206E-11	1.509163E-6	1.800000E+1	2.243000E-5
1.710940E+1	2.156936E-11	1.370043E-6	2.000000E+1	2.367600E-5
2.178684E+1	1.600156E-11	9.131908E-7	2.500000E+1	2.631800E-5
2.658014E+1	1.238456E-11	4.915898E-7	3.000000E+1	2.801100E-5
3.144804E+1	1.086446E-11	2.758538E-7	3.500000E+1	2.909300E-5
3.635549E+1	1.018826E-11	1.712268E-7	4.000000E+1	2.985100E-5
4.128566E+1	9.860963E-12	1.177958E-7	4.500000E+1	3.042300E-5
4.622815E+1	9.680563E-12	8.711061E-8	5.000000E+1	3.089400E-5
5.117895E+1	9.570463E-12	6.814001E-8	5.500000E+1	3.129700E-5
5.613829E+1	9.495963E-12	5.542121E-8	6.000000E+1	3.163000E-5
6.109861E+1	9.443763E-12	4.664311E-8	6.500000E+1	3.195500E-5
6.606541E+1	9.404863E-12	4.021091E-8	7.000000E+1	3.222700E-5
7.103378E+1	9.374463E-12	3.533731E-8	7.500000E+1	3.248600E-5
7.600241E+1	9.350963E-12	3.161981E-8	8.000000E+1	3.274300E-5
8.097518E+1	9.331963E-12	2.872141E-8	8.500000E+1	3.296600E-5
8.595150E+1	9.315863E-12	2.637611E-8	9.000000E+1	3.316000E-5
9.092610E+1	9.302563E-12	2.451711E-8	9.500000E+1	3.336800E-5
9.590205E+1	9.291563E-12	2.308841E-8	1.000000E+2	3.356500E-5
1.058585E+2	9.274563E-12	2.103221E-8	1.100000E+2	3.392200E-5
1.158185E+2	9.261663E-12	1.987351E-8	1.200000E+2	3.424900E-5
1.257762E+2	9.252263E-12	1.933581E-8	1.300000E+2	3.459600E-5
1.357399E+2	9.244963E-12	1.933521E-8	1.400000E+2	3.489300E-5
1.457013E+2	9.238863E-12	1.981711E-8	1.500000E+2	3.520900E-5
1.556645E+2	9.235363E-12	2.065561E-8	1.600000E+2	3.551100E-5
1.656230E+2	9.231863E-12	2.185231E-8	1.700000E+2	3.585100E-5
1.755813E+2	9.229163E-12	2.333931E-8	1.800000E+2	3.619200E-5
1.855352E+2	9.226563E-12	2.517331E-8	1.900000E+2	3.657000E-5
1.954767E+2	9.224163E-12	2.728711E-8	2.000000E+2	3.704900E-5
2.054034E+2	9.220263E-12	2.953121E-8	2.100000E+2	3.764900E-5
2.152989E+2	9.214963E-12	3.211861E-8	2.200000E+2	3.850500E-5
2.251550E+2	9.209363E-12	3.488281E-8	2.300000E+2	3.968400E-5
2.349510E+2	9.202863E-12	3.799541E-8	2.400000E+2	4.135500E-5
2.446801E+2	9.195463E-12	4.145791E-8	2.500000E+2	4.357400E-5
2.543273E+2	9.184563E-12	4.565711E-8	2.600000E+2	4.646300E-5
2.638843E+2	9.168663E-12	5.067431E-8	2.700000E+2	5.009200E-5
2.733567E+2	9.148263E-12	5.578321E-8	2.800000E+2	5.441300E-5
2.827553E+2	9.136363E-12	6.027831E-8	2.900000E+2	5.933900E-5
2.920740E+2	9.127663E-12	6.475771E-8	3.000000E+2	6.491900E-5
3.013247E+2	9.123363E-12	6.908141E-8	3.100000E+2	7.105700E-5
3.104981E+2	9.120263E-12	7.341991E-8	3.200000E+2	7.782700E-5
3.195989E+2	9.116963E-12	7.806751E-8	3.300000E+2	8.519200E-5
3.286322E+2	9.118463E-12	8.211981E-8	3.400000E+2	9.311000E-5
3.375834E+2	9.114363E-12	8.679601E-8	3.500000E+2	1.017000E-4
END
