CV Measurement
:Program Version
13.8.2003 Moll, 4.2008 Fahrer, 6.2011 Gabrysch
:Program Library
CVIV.llb
:start
15/04/2018 16:23:57
:stop
15/04/2018 16:32:04
:elapsed [s]
487.2
:gpib bus delay [ms]
50
:device
W332-M10
:tester
Isidre
:environment
Probe Station (28-2-019)
:comment
fluence:1.09e12, SET:003135
:annealing time [min]
80
:material
n FZ
:temperature [C]
20.00
:ToolID
1102
:GuardRingConnection
1
:Region
0
:Instruments
V source: Keithley 237
- current compilance [A]: 1.000E-3
- integration time: 4 ms
- filter (averaging): 8
- source range: 1.1V
LCR meter: Agilent E4980A
- Frequency: 10000 Hz
- Signal level: 500 mV
- Averaging: 10
:LCR open correction: C[F] , G[S]
4.175E-11, 9.743E-9
:ramp up step [V], delay [s], down step [V], delay[s]
2.0, 1.0, 20.0, 0.5
:set voltage start [V], voltage stop [V], number of steps
0.0, 1000.0, 200
:measured voltage start [V], voltage stop [V], number of steps
0.0, 350.0, 59
:step mode
voltages from file
:legend
V_detector [V]	Capacitance [F]	Conductivity [S]	Bias [V]	Current Power Supply [A]
BEGIN
4.128107E-1	1.866907E-10	3.582907E-6	0.000000E+0	-3.381200E-6
5.086301E-1	1.698457E-10	4.858549E-7	5.000000E-1	-7.068600E-8
9.983818E-1	1.324127E-10	1.573009E-7	1.000000E+0	1.325400E-8
1.497768E+0	1.134417E-10	1.126939E-7	1.500000E+0	1.828200E-8
1.997564E+0	9.967869E-11	8.332500E-8	2.000000E+0	1.995300E-8
2.996771E+0	8.470669E-11	5.810020E-8	3.000000E+0	2.644500E-8
3.996467E+0	7.516769E-11	4.501480E-8	4.000000E+0	2.893700E-8
4.996070E+0	6.838369E-11	3.697110E-8	5.000000E+0	3.218900E-8
5.995527E+0	6.286469E-11	3.119930E-8	6.000000E+0	3.663700E-8
6.995268E+0	5.879269E-11	2.727000E-8	7.000000E+0	3.875600E-8
7.994967E+0	5.545129E-11	2.430510E-8	8.000000E+0	4.122500E-8
8.994860E+0	5.265599E-11	2.208830E-8	9.000000E+0	4.210100E-8
9.994512E+0	5.009289E-11	2.058780E-8	1.000000E+1	4.494700E-8
1.199393E+1	4.595979E-11	3.852060E-8	1.200000E+1	4.972100E-8
1.399339E+1	4.107509E-11	3.621770E-8	1.400000E+1	5.418100E-8
1.599284E+1	3.845749E-11	1.343440E-8	1.600000E+1	5.866600E-8
1.799249E+1	3.628099E-11	1.196590E-8	1.800000E+1	6.152400E-8
1.999194E+1	3.450449E-11	1.089050E-8	2.000000E+1	6.600000E-8
2.499099E+1	3.093919E-11	8.829097E-9	2.500000E+1	7.381700E-8
2.999011E+1	2.833629E-11	7.435597E-9	3.000000E+1	8.098700E-8
3.498957E+1	2.631329E-11	6.475197E-9	3.500000E+1	8.540000E-8
3.998863E+1	2.465259E-11	5.727197E-9	4.000000E+1	9.311600E-8
4.498988E+1	2.329639E-11	4.686697E-9	4.500000E+1	8.290100E-8
4.998789E+1	2.214639E-11	4.055297E-9	5.000000E+1	9.916000E-8
5.498611E+1	2.115579E-11	3.649597E-9	5.500000E+1	1.137500E-7
5.998599E+1	2.027909E-11	3.301697E-9	6.000000E+1	1.147200E-7
6.498621E+1	1.951649E-11	3.057897E-9	6.500000E+1	1.129100E-7
6.998419E+1	1.883739E-11	2.822297E-9	7.000000E+1	1.294600E-7
7.498353E+1	1.821729E-11	2.571997E-9	7.500000E+1	1.349100E-7
7.998337E+1	1.766499E-11	2.380697E-9	8.000000E+1	1.361800E-7
8.498236E+1	1.716159E-11	2.199797E-9	8.500000E+1	1.444500E-7
8.998348E+1	1.669469E-11	2.063097E-9	9.000000E+1	1.353200E-7
9.498265E+1	1.627049E-11	1.934097E-9	9.500000E+1	1.420900E-7
9.998203E+1	1.587929E-11	1.810097E-9	1.000000E+2	1.471800E-7
1.099805E+2	1.517349E-11	1.613197E-9	1.100000E+2	1.597600E-7
1.199796E+2	1.455769E-11	1.415397E-9	1.200000E+2	1.673700E-7
1.299784E+2	1.401869E-11	1.260097E-9	1.300000E+2	1.768700E-7
1.399776E+2	1.353499E-11	1.136997E-9	1.400000E+2	1.833500E-7
1.499778E+2	1.310359E-11	1.026697E-9	1.500000E+2	1.821500E-7
1.599756E+2	1.271219E-11	9.093967E-10	1.600000E+2	1.994800E-7
1.699752E+2	1.235539E-11	8.289967E-10	1.700000E+2	2.028400E-7
1.799737E+2	1.203139E-11	7.478967E-10	1.800000E+2	2.156000E-7
1.899737E+2	1.173079E-11	6.875967E-10	1.900000E+2	2.155800E-7
1.999726E+2	1.145349E-11	5.783967E-10	2.000000E+2	2.242600E-7
2.099728E+2	1.119819E-11	5.423967E-10	2.100000E+2	2.225500E-7
2.199712E+2	1.095949E-11	4.700967E-10	2.200000E+2	2.359400E-7
2.299710E+2	1.073799E-11	4.126967E-10	2.300000E+2	2.373600E-7
2.399696E+2	1.052899E-11	3.515967E-10	2.400000E+2	2.487800E-7
2.499697E+2	1.033359E-11	3.044967E-10	2.500000E+2	2.480600E-7
2.599675E+2	1.015099E-11	2.686967E-10	2.600000E+2	2.665700E-7
2.699681E+2	9.982087E-12	1.393067E-10	2.700000E+2	2.614200E-7
2.799675E+2	9.840987E-12	2.786667E-12	2.800000E+2	2.662800E-7
2.899659E+2	9.748387E-12	-2.303633E-10	2.900000E+2	2.789100E-7
2.999658E+2	9.701887E-12	-4.063033E-10	3.000000E+2	2.802400E-7
3.099663E+2	9.679887E-12	-4.983333E-10	3.100000E+2	2.758200E-7
3.199649E+2	9.668087E-12	-5.032633E-10	3.200000E+2	2.877200E-7
3.299656E+2	9.660787E-12	-5.376633E-10	3.300000E+2	2.819200E-7
3.399645E+2	9.655987E-12	-5.442333E-10	3.400000E+2	2.905300E-7
3.499648E+2	9.652287E-12	-5.479033E-10	3.500000E+2	2.886000E-7
END
