CV Measurement
:Program Version
13.8.2003 Moll, 4.2008 Fahrer, 6.2011 Gabrysch
:Program Library
CVIV.llb
:start
23/11/2017 20:26:57
:stop
23/11/2017 20:36:51
:elapsed [s]
593.3
:gpib bus delay [ms]
50
:device
W332-M10
:tester
Isidre
:environment
Probe Station (28-2-019)
:comment
unirrad
:annealing time [min]
0
:material
n FZ
:temperature [C]
20.00
:ToolID
1102
:GuardRingConnection
1
:Region
0
:Instruments
V source: Keithley 237
- current compilance [A]: 1.000E-3
- integration time: 4 ms
- filter (averaging): 8
- source range: 1.1V
LCR meter: Agilent E4980A
- Frequency: 1000 Hz
- Signal level: 500 mV
- Averaging: 10
:LCR open correction: C[F] , G[S]
4.245E-11, -4.868E-10
:ramp up step [V], delay [s], down step [V], delay[s]
2.0, 1.0, 20.0, 0.5
:set voltage start [V], voltage stop [V], number of steps
0.0, 100.0, 20
:measured voltage start [V], voltage stop [V], number of steps
0.0, 450.0, 69
:step mode
voltages from file
:legend
V_detector [V]	Capacitance [F]	Conductivity [S]	Bias [V]	Current Power Supply [A]
BEGIN
3.658915E-1	3.913850E-9	3.824227E-6	0.000000E+0	-2.996900E-6
5.026226E-1	1.939306E-10	2.353922E-8	5.000000E-1	-2.148100E-8
1.006694E+0	1.379916E-10	6.934674E-9	1.000000E+0	-5.482500E-8
1.502007E+0	1.171616E-10	5.299434E-9	1.500000E+0	-1.644200E-8
2.001499E+0	1.022016E-10	5.696964E-9	2.000000E+0	-1.228000E-8
2.997729E+0	8.619958E-11	4.971704E-9	3.000000E+0	1.860100E-8
4.005737E+0	7.618058E-11	4.179254E-9	4.000000E+0	-4.698600E-8
4.997871E+0	6.906358E-11	3.796334E-9	5.000000E+0	1.743500E-8
6.002158E+0	6.333158E-11	3.719534E-9	6.000000E+0	-1.767200E-8
7.008189E+0	5.916658E-11	3.332054E-9	7.000000E+0	-6.707500E-8
7.996062E+0	5.569348E-11	3.079934E-9	8.000000E+0	3.225600E-8
8.996512E+0	5.279658E-11	3.212394E-9	9.000000E+0	2.857300E-8
1.000194E+1	5.018238E-11	3.107454E-9	1.000000E+1	-1.593000E-8
1.200542E+1	4.618298E-11	3.782124E-9	1.200000E+1	-4.441700E-8
1.400335E+1	4.179008E-11	6.799404E-9	1.400000E+1	-2.747200E-8
1.600489E+1	3.856808E-11	3.328674E-9	1.600000E+1	-4.001200E-8
1.799778E+1	3.633458E-11	3.701714E-9	1.800000E+1	1.821200E-8
2.000139E+1	3.451108E-11	2.554664E-9	2.000000E+1	-1.135500E-8
2.500158E+1	3.086068E-11	2.260784E-9	2.500000E+1	-1.294100E-8
2.999756E+1	2.820628E-11	2.357924E-9	3.000000E+1	2.000000E-8
3.499422E+1	2.613478E-11	2.079594E-9	3.500000E+1	4.732000E-8
4.000419E+1	2.445048E-11	1.974394E-9	4.000000E+1	-3.430900E-8
4.499198E+1	2.305828E-11	2.136134E-9	4.500000E+1	6.566000E-8
5.000144E+1	2.190488E-11	1.874304E-9	5.000000E+1	-1.181600E-8
5.500238E+1	2.088878E-11	2.330984E-9	5.500000E+1	-1.946300E-8
5.999624E+1	1.999798E-11	1.959974E-9	6.000000E+1	3.078000E-8
6.499817E+1	1.921358E-11	2.356404E-9	6.500000E+1	1.499700E-8
6.999036E+1	1.852128E-11	1.840144E-9	7.000000E+1	7.893300E-8
7.499803E+1	1.788918E-11	1.775194E-9	7.500000E+1	1.617500E-8
8.000273E+1	1.731738E-11	1.829814E-9	8.000000E+1	-2.240000E-8
8.500182E+1	1.681518E-11	1.795734E-9	8.500000E+1	-1.487300E-8
8.999863E+1	1.632868E-11	2.003724E-9	9.000000E+1	1.125100E-8
9.499617E+1	1.592048E-11	1.902894E-9	9.500000E+1	3.136200E-8
9.999767E+1	1.551768E-11	1.947014E-9	1.000000E+2	1.905700E-8
1.099938E+2	1.480708E-11	2.092224E-9	1.100000E+2	5.040500E-8
1.199964E+2	1.416988E-11	2.065294E-9	1.200000E+2	2.926000E-8
1.299983E+2	1.360758E-11	1.847354E-9	1.300000E+2	1.428600E-8
1.400033E+2	1.312248E-11	2.241104E-9	1.400000E+2	-2.666500E-8
1.499975E+2	1.268508E-11	1.668104E-9	1.500000E+2	2.023900E-8
1.599949E+2	1.227658E-11	2.455084E-9	1.600000E+2	4.150900E-8
1.699980E+2	1.193478E-11	1.475394E-9	1.700000E+2	1.645900E-8
1.800045E+2	1.160488E-11	1.672984E-9	1.800000E+2	-3.725800E-8
1.899967E+2	1.127478E-11	1.498584E-9	1.900000E+2	2.680500E-8
2.000041E+2	1.100058E-11	1.771354E-9	2.000000E+2	-3.382200E-8
2.100019E+2	1.074178E-11	1.500644E-9	2.100000E+2	-1.591300E-8
2.200022E+2	1.049468E-11	1.538064E-9	2.200000E+2	-1.788400E-8
2.300032E+2	1.026708E-11	1.713714E-9	2.300000E+2	-2.630200E-8
2.399915E+2	1.007928E-11	2.119304E-9	2.400000E+2	7.000000E-8
2.500051E+2	9.865777E-12	1.439053E-9	2.500000E+2	-4.213700E-8
2.599962E+2	9.671377E-12	1.401753E-9	2.600000E+2	3.087600E-8
2.699968E+2	9.486777E-12	1.615114E-9	2.700000E+2	2.614000E-8
2.800011E+2	9.315077E-12	1.583894E-9	2.800000E+2	-9.063000E-9
2.899983E+2	9.202977E-12	1.646794E-9	2.900000E+2	1.403000E-8
2.999988E+2	9.148177E-12	1.302454E-9	3.000000E+2	1.010500E-8
3.100020E+2	9.103977E-12	1.324102E-9	3.100000E+2	-1.658200E-8
3.199943E+2	9.087477E-12	1.938614E-9	3.200000E+2	4.642700E-8
3.300023E+2	9.082177E-12	1.489084E-9	3.300000E+2	-1.920400E-8
3.399988E+2	9.068577E-12	1.490704E-9	3.400000E+2	1.000000E-8
3.500020E+2	9.057477E-12	1.411470E-9	3.500000E+2	-1.599700E-8
3.599916E+2	9.050477E-12	2.086374E-9	3.600000E+2	6.871400E-8
3.699976E+2	9.026777E-12	1.513744E-9	3.700000E+2	1.970300E-8
3.799950E+2	9.037277E-12	1.488994E-9	3.800000E+2	4.083900E-8
3.899941E+2	9.041877E-12	1.501074E-9	3.900000E+2	4.792900E-8
4.000030E+2	9.052377E-12	1.327092E-9	4.000000E+2	-2.493800E-8
4.099936E+2	9.048177E-12	1.679794E-9	4.100000E+2	5.210800E-8
4.199933E+2	9.017577E-12	1.850054E-9	4.200000E+2	5.472200E-8
4.299984E+2	9.052177E-12	1.687054E-9	4.300000E+2	1.347800E-8
4.399943E+2	9.019977E-12	1.732834E-9	4.400000E+2	4.704000E-8
4.499971E+2	9.023977E-12	1.432737E-9	4.500000E+2	2.365300E-8
END
