CV Measurement
:Program Version
13.8.2003 Moll, 4.2008 Fahrer, 6.2011 Gabrysch
:Program Library
CVIV.llb
:start
13/04/2018 22:47:53
:stop
13/04/2018 22:56:05
:elapsed [s]
491.9
:gpib bus delay [ms]
50
:device
W332-M10
:tester
Isidre
:environment
Probe Station (28-2-019)
:comment
fluence: 1.09e12
:annealing time [min]
0
:material
n FZ
:temperature [C]
20.00
:ToolID
1102
:GuardRingConnection
1
:Region
0
:Instruments
V source: Keithley 237
- current compilance [A]: 1.000E-3
- integration time: 4 ms
- filter (averaging): 8
- source range: 1.1V
LCR meter: Agilent E4980A
- Frequency: 10000 Hz
- Signal level: 500 mV
- Averaging: 10
:LCR open correction: C[F] , G[S]
4.224E-11, 9.657E-9
:ramp up step [V], delay [s], down step [V], delay[s]
2.0, 1.0, 20.0, 0.5
:set voltage start [V], voltage stop [V], number of steps
0.0, 1000.0, 200
:measured voltage start [V], voltage stop [V], number of steps
0.0, 350.0, 59
:step mode
voltages from file
:legend
V_detector [V]	Capacitance [F]	Conductivity [S]	Bias [V]	Current Power Supply [A]
BEGIN
4.525022E-1	1.836933E-10	3.836553E-6	0.000000E+0	-3.706300E-6
5.223522E-1	1.701663E-10	7.914318E-7	5.000000E-1	-1.830800E-7
9.971730E-1	1.316353E-10	1.744698E-7	1.000000E+0	2.315500E-8
1.496443E+0	1.124193E-10	1.235058E-7	1.500000E+0	2.913500E-8
1.995867E+0	9.857126E-11	9.103281E-8	2.000000E+0	3.385200E-8
2.994500E+0	8.360026E-11	6.340661E-8	3.000000E+0	4.504800E-8
3.994018E+0	7.409326E-11	4.912471E-8	4.000000E+0	4.899300E-8
4.993985E+0	6.733926E-11	4.040591E-8	5.000000E+0	4.927100E-8
5.993064E+0	6.186326E-11	3.412001E-8	6.000000E+0	5.680700E-8
6.992720E+0	5.782426E-11	2.989081E-8	7.000000E+0	5.963200E-8
7.991231E+0	5.451476E-11	2.672841E-8	8.000000E+0	7.182000E-8
8.990260E+0	5.175266E-11	2.373981E-8	9.000000E+0	7.977800E-8
9.989635E+0	4.920926E-11	2.248021E-8	1.000000E+1	8.489800E-8
1.198990E+1	4.502526E-11	4.499371E-8	1.200000E+1	8.274000E-8
1.398885E+1	4.010556E-11	3.227171E-8	1.400000E+1	9.133000E-8
1.598885E+1	3.755276E-11	1.436181E-8	1.600000E+1	9.133000E-8
1.798769E+1	3.539886E-11	1.285761E-8	1.800000E+1	1.008500E-7
1.998769E+1	3.364176E-11	1.169551E-8	2.000000E+1	1.008200E-7
2.498557E+1	3.011466E-11	9.484909E-9	2.500000E+1	1.181800E-7
2.998435E+1	2.754026E-11	7.975109E-9	3.000000E+1	1.281600E-7
3.498325E+1	2.554036E-11	6.853209E-9	3.500000E+1	1.371800E-7
3.998165E+1	2.389806E-11	6.035309E-9	4.000000E+1	1.503000E-7
4.498091E+1	2.255716E-11	5.396809E-9	4.500000E+1	1.563700E-7
4.998029E+1	2.141986E-11	4.868809E-9	5.000000E+1	1.614100E-7
5.497784E+1	2.044076E-11	4.439509E-9	5.500000E+1	1.815400E-7
5.997754E+1	1.957446E-11	4.051809E-9	6.000000E+1	1.840000E-7
6.497680E+1	1.882066E-11	3.766909E-9	6.500000E+1	1.900400E-7
6.997611E+1	1.815056E-11	3.455509E-9	7.000000E+1	1.956800E-7
7.497415E+1	1.753746E-11	3.256809E-9	7.500000E+1	2.117400E-7
7.997330E+1	1.699156E-11	3.010509E-9	8.000000E+1	2.186900E-7
8.497349E+1	1.649446E-11	2.832909E-9	8.500000E+1	2.171500E-7
8.997212E+1	1.603346E-11	2.668109E-9	9.000000E+1	2.283300E-7
9.497204E+1	1.561456E-11	2.513509E-9	9.500000E+1	2.289800E-7
9.997035E+1	1.522796E-11	2.384309E-9	1.000000E+2	2.428200E-7
1.099680E+2	1.453076E-11	2.150009E-9	1.100000E+2	2.617500E-7
1.199678E+2	1.392266E-11	1.955609E-9	1.200000E+2	2.636900E-7
1.299651E+2	1.339016E-11	1.780109E-9	1.300000E+2	2.860100E-7
1.399642E+2	1.291276E-11	1.635109E-9	1.400000E+2	2.935700E-7
1.499643E+2	1.248636E-11	1.531709E-9	1.500000E+2	2.924400E-7
1.599615E+2	1.210066E-11	1.393209E-9	1.600000E+2	3.152200E-7
1.699596E+2	1.174856E-11	1.273909E-9	1.700000E+2	3.311100E-7
1.799588E+2	1.142876E-11	1.187009E-9	1.800000E+2	3.373100E-7
1.899584E+2	1.113266E-11	1.131309E-9	1.900000E+2	3.405700E-7
1.999564E+2	1.085926E-11	1.053609E-9	2.000000E+2	3.567400E-7
2.099566E+2	1.060786E-11	9.668087E-10	2.100000E+2	3.554600E-7
2.199553E+2	1.037256E-11	9.177087E-10	2.200000E+2	3.661600E-7
2.299525E+2	1.015436E-11	8.578087E-10	2.300000E+2	3.891200E-7
2.399528E+2	9.948963E-12	7.647087E-10	2.400000E+2	3.867800E-7
2.499519E+2	9.756563E-12	6.886087E-10	2.500000E+2	3.938100E-7
2.599502E+2	9.579763E-12	5.916087E-10	2.600000E+2	4.078100E-7
2.699483E+2	9.423863E-12	4.296087E-10	2.700000E+2	4.235400E-7
2.799479E+2	9.310163E-12	1.656387E-10	2.800000E+2	4.270200E-7
2.899474E+2	9.248363E-12	-7.895133E-11	2.900000E+2	4.304500E-7
2.999464E+2	9.219063E-12	-1.989913E-10	3.000000E+2	4.389200E-7
3.099465E+2	9.204463E-12	-2.434513E-10	3.100000E+2	4.383400E-7
3.199467E+2	9.195963E-12	-2.819813E-10	3.200000E+2	4.368200E-7
3.299469E+2	9.190163E-12	-2.974513E-10	3.300000E+2	4.346800E-7
3.399448E+2	9.186063E-12	-2.967413E-10	3.400000E+2	4.518000E-7
3.499451E+2	9.183063E-12	-2.927413E-10	3.500000E+2	4.498800E-7
END
