CV Measurement
:Program Version
13.8.2003 Moll, 4.2008 Fahrer, 6.2011 Gabrysch
:Program Library
CVIV.llb
:start
13/04/2018 23:54:25
:stop
14/04/2018 00:02:37
:elapsed [s]
491.6
:gpib bus delay [ms]
50
:device
W332-M6
:tester
Isidre
:environment
Probe Station (28-2-019)
:comment
fluence:2.41e13, SET:003137
:annealing time [min]
0
:material
n FZ
:temperature [C]
20.00
:ToolID
1102
:GuardRingConnection
1
:Region
0
:Instruments
V source: Keithley 237
- current compilance [A]: 1.000E-3
- integration time: 4 ms
- filter (averaging): 8
- source range: 1.1V
LCR meter: Agilent E4980A
- Frequency: 10000 Hz
- Signal level: 500 mV
- Averaging: 10
:LCR open correction: C[F] , G[S]
4.224E-11, 9.657E-9
:ramp up step [V], delay [s], down step [V], delay[s]
2.0, 1.0, 20.0, 0.5
:set voltage start [V], voltage stop [V], number of steps
0.0, 1000.0, 200
:measured voltage start [V], voltage stop [V], number of steps
0.0, 350.0, 59
:step mode
voltages from file
:legend
V_detector [V]	Capacitance [F]	Conductivity [S]	Bias [V]	Current Power Supply [A]
BEGIN
3.748529E-1	1.163023E-10	9.250403E-6	0.000000E+0	-3.070300E-6
5.100395E-1	1.175523E-10	5.734653E-6	5.000000E-1	-8.223000E-8
8.855650E-1	1.031543E-10	2.427193E-6	1.000000E+0	9.373000E-7
1.370133E+0	8.989226E-11	1.731673E-6	1.500000E+0	1.063700E-6
1.855543E+0	8.007826E-11	1.346563E-6	2.000000E+0	1.183200E-6
2.830222E+0	6.905426E-11	1.006623E-6	3.000000E+0	1.390600E-6
3.812616E+0	6.174226E-11	8.255488E-7	4.000000E+0	1.534800E-6
4.794632E+0	5.631416E-11	7.125158E-7	5.000000E+0	1.682100E-6
5.777186E+0	5.167336E-11	6.315358E-7	6.000000E+0	1.825000E-6
6.763121E+0	4.798256E-11	5.779018E-7	7.000000E+0	1.940200E-6
7.749166E+0	4.465306E-11	5.324048E-7	8.000000E+0	2.054500E-6
8.736774E+0	4.164526E-11	4.798478E-7	9.000000E+0	2.156000E-6
9.722563E+0	3.899436E-11	4.119798E-7	1.000000E+1	2.272400E-6
1.170089E+1	3.564576E-11	3.399048E-7	1.200000E+1	2.449900E-6
1.367854E+1	3.303496E-11	2.995358E-7	1.400000E+1	2.633000E-6
1.565753E+1	3.099806E-11	2.700088E-7	1.600000E+1	2.805100E-6
1.763898E+1	2.924076E-11	2.458568E-7	1.800000E+1	2.957000E-6
1.962089E+1	2.780196E-11	2.268998E-7	2.000000E+1	3.105200E-6
2.457824E+1	2.490116E-11	1.910018E-7	2.500000E+1	3.454500E-6
2.954045E+1	2.278406E-11	1.666338E-7	3.000000E+1	3.764000E-6
3.450701E+1	2.113876E-11	1.487728E-7	3.500000E+1	4.037900E-6
3.947413E+1	1.978946E-11	1.347868E-7	4.000000E+1	4.307200E-6
4.444217E+1	1.868726E-11	1.238038E-7	4.500000E+1	4.569000E-6
4.941518E+1	1.775276E-11	1.147708E-7	5.000000E+1	4.790100E-6
5.438719E+1	1.694786E-11	1.072268E-7	5.500000E+1	5.019300E-6
5.935964E+1	1.623506E-11	1.006458E-7	6.000000E+1	5.245000E-6
6.433461E+1	1.561396E-11	9.501081E-8	6.500000E+1	5.450000E-6
6.931061E+1	1.506066E-11	9.002151E-8	7.000000E+1	5.646600E-6
7.428626E+1	1.455286E-11	8.549361E-8	7.500000E+1	5.846000E-6
7.926321E+1	1.409916E-11	8.144701E-8	8.000000E+1	6.034800E-6
8.424125E+1	1.368276E-11	7.769241E-8	8.500000E+1	6.214700E-6
8.921904E+1	1.329336E-11	7.411511E-8	9.000000E+1	6.396600E-6
9.419778E+1	1.293546E-11	7.076901E-8	9.500000E+1	6.570700E-6
9.917827E+1	1.260106E-11	6.754381E-8	1.000000E+2	6.730500E-6
1.091386E+2	1.197566E-11	6.107191E-8	1.100000E+2	7.055100E-6
1.191062E+2	1.139616E-11	5.432451E-8	1.200000E+2	7.320900E-6
1.290744E+2	1.083976E-11	4.624741E-8	1.300000E+2	7.581000E-6
1.390462E+2	1.030676E-11	3.580891E-8	1.400000E+2	7.812400E-6
1.490237E+2	9.870363E-12	2.474441E-8	1.500000E+2	7.996700E-6
1.590069E+2	9.567963E-12	1.581851E-8	1.600000E+2	8.134300E-6
1.689914E+2	9.384163E-12	9.861109E-9	1.700000E+2	8.261400E-6
1.789811E+2	9.285163E-12	6.277209E-9	1.800000E+2	8.345400E-6
1.889720E+2	9.237063E-12	4.244909E-9	1.900000E+2	8.420400E-6
1.989651E+2	9.215363E-12	3.161409E-9	2.000000E+2	8.476400E-6
2.089564E+2	9.204763E-12	2.629409E-9	2.100000E+2	8.547800E-6
2.189510E+2	9.198363E-12	2.304209E-9	2.200000E+2	8.592300E-6
2.289447E+2	9.194063E-12	2.131009E-9	2.300000E+2	8.643900E-6
2.389388E+2	9.190863E-12	1.968109E-9	2.400000E+2	8.692200E-6
2.489333E+2	9.188663E-12	1.889909E-9	2.500000E+2	8.736800E-6
2.589294E+2	9.186563E-12	1.830309E-9	2.600000E+2	8.769000E-6
2.689241E+2	9.184763E-12	1.783909E-9	2.700000E+2	8.812300E-6
2.789140E+2	9.183463E-12	1.728309E-9	2.800000E+2	8.895000E-6
2.888724E+2	9.184563E-12	1.737309E-9	2.900000E+2	9.236000E-6
2.986209E+2	9.179163E-12	1.725109E-9	3.000000E+2	1.129600E-5
3.076899E+2	9.169463E-12	1.755709E-9	3.100000E+2	1.892100E-5
3.156995E+2	9.160963E-12	1.759709E-9	3.200000E+2	3.522400E-5
3.230143E+2	9.154263E-12	1.752309E-9	3.300000E+2	5.721800E-5
3.297471E+2	9.148863E-12	1.711509E-9	3.400000E+2	8.397800E-5
3.360646E+2	9.150063E-12	9.695087E-10	3.500000E+2	1.141400E-4
END
