CV Measurement
:Program Version
13.8.2003 Moll, 4.2008 Fahrer, 6.2011 Gabrysch
:Program Library
CVIV.llb
:start
23/11/2017 19:01:50
:stop
23/11/2017 19:10:02
:elapsed [s]
492.0
:gpib bus delay [ms]
50
:device
W332-M6
:tester
Isidre
:environment
Probe Station (28-2-019)
:comment
unirrad
:annealing time [min]
0
:material
n FZ
:temperature [C]
20.00
:ToolID
1102
:GuardRingConnection
1
:Region
0
:Instruments
V source: Keithley 237
- current compilance [A]: 1.000E-3
- integration time: 4 ms
- filter (averaging): 8
- source range: 1.1V
LCR meter: Agilent E4980A
- Frequency: 1000 Hz
- Signal level: 500 mV
- Averaging: 10
:LCR open correction: C[F] , G[S]
4.245E-11, -4.868E-10
:ramp up step [V], delay [s], down step [V], delay[s]
2.0, 1.0, 20.0, 0.5
:set voltage start [V], voltage stop [V], number of steps
0.0, 100.0, 20
:measured voltage start [V], voltage stop [V], number of steps
0.0, 350.0, 59
:step mode
voltages from file
:legend
V_detector [V]	Capacitance [F]	Conductivity [S]	Bias [V]	Current Power Supply [A]
BEGIN
3.614108E-1	3.931270E-9	3.874857E-6	0.000000E+0	-2.960200E-6
5.036627E-1	1.950626E-10	2.256292E-8	5.000000E-1	-3.000000E-8
9.949764E-1	1.394536E-10	7.208414E-9	1.000000E+0	4.114700E-8
1.494999E+0	1.184956E-10	5.521414E-9	1.500000E+0	4.096000E-8
2.003710E+0	1.033916E-10	5.180214E-9	2.000000E+0	-3.038700E-8
2.996219E+0	8.722658E-11	4.978474E-9	3.000000E+0	3.096700E-8
4.003922E+0	7.711658E-11	4.200774E-9	4.000000E+0	-3.212600E-8
4.997231E+0	6.988558E-11	3.872684E-9	5.000000E+0	2.268200E-8
5.996671E+0	6.407458E-11	4.052254E-9	6.000000E+0	2.726300E-8
7.004305E+0	5.984858E-11	3.341544E-9	7.000000E+0	-3.526100E-8
7.997017E+0	5.634378E-11	4.174074E-9	8.000000E+0	2.443500E-8
9.003218E+0	5.338428E-11	3.309434E-9	9.000000E+0	-2.635500E-8
9.997690E+0	5.075488E-11	2.870704E-9	1.000000E+1	1.892200E-8
1.200234E+1	4.667488E-11	3.176144E-9	1.200000E+1	-1.920700E-8
1.400293E+1	4.256288E-11	6.606244E-9	1.400000E+1	-2.397000E-8
1.600519E+1	3.914628E-11	2.665484E-9	1.600000E+1	-4.249600E-8
1.799382E+1	3.685498E-11	2.454104E-9	1.800000E+1	5.064500E-8
1.999871E+1	3.499958E-11	2.832064E-9	2.000000E+1	1.054300E-8
2.500262E+1	3.130948E-11	2.398334E-9	2.500000E+1	-2.147400E-8
2.999868E+1	2.860948E-11	2.436844E-9	3.000000E+1	1.077700E-8
3.499609E+1	2.653848E-11	1.894154E-9	3.500000E+1	3.202000E-8
4.000266E+1	2.478798E-11	2.120834E-9	4.000000E+1	-2.177400E-8
4.500454E+1	2.337278E-11	2.094134E-9	4.500000E+1	-3.721600E-8
5.000177E+1	2.221858E-11	1.706494E-9	5.000000E+1	-1.447200E-8
5.500367E+1	2.118328E-11	2.223954E-9	5.500000E+1	-3.003600E-8
6.000206E+1	2.025718E-11	2.951814E-9	6.000000E+1	-1.684800E-8
6.500440E+1	1.948098E-11	2.216464E-9	6.500000E+1	-3.602900E-8
6.999099E+1	1.881228E-11	2.018244E-9	7.000000E+1	7.377500E-8
7.499497E+1	1.813698E-11	1.652264E-9	7.500000E+1	4.118600E-8
7.999584E+1	1.753948E-11	1.975424E-9	8.000000E+1	3.408400E-8
8.499468E+1	1.703668E-11	2.157254E-9	8.500000E+1	4.358300E-8
8.999604E+1	1.654278E-11	1.868794E-9	9.000000E+1	3.243100E-8
9.500126E+1	1.611678E-11	2.148094E-9	9.500000E+1	-1.034300E-8
9.999830E+1	1.572818E-11	1.985334E-9	1.000000E+2	1.396000E-8
1.100029E+2	1.503218E-11	1.812454E-9	1.100000E+2	-2.358600E-8
1.199979E+2	1.432218E-11	1.813664E-9	1.200000E+2	1.730600E-8
1.300020E+2	1.378228E-11	1.742024E-9	1.300000E+2	-1.664100E-8
1.399943E+2	1.328158E-11	1.820324E-9	1.400000E+2	4.667000E-8
1.499947E+2	1.284428E-11	1.613064E-9	1.500000E+2	4.352200E-8
1.599971E+2	1.244058E-11	2.312824E-9	1.600000E+2	2.394100E-8
1.699986E+2	1.207628E-11	2.148424E-9	1.700000E+2	1.169100E-8
1.799972E+2	1.173408E-11	1.601484E-9	1.800000E+2	2.309600E-8
1.899963E+2	1.143698E-11	2.480904E-9	1.900000E+2	3.000000E-8
2.000031E+2	1.115478E-11	2.199524E-9	2.000000E+2	-2.521800E-8
2.099970E+2	1.086938E-11	1.697134E-9	2.100000E+2	2.465100E-8
2.200028E+2	1.062808E-11	1.463240E-9	2.200000E+2	-2.264900E-8
2.299948E+2	1.040118E-11	1.762754E-9	2.300000E+2	4.298400E-8
2.400019E+2	1.020508E-11	1.410095E-9	2.400000E+2	-1.557800E-8
2.499937E+2	9.988677E-12	2.288734E-9	2.500000E+2	5.150100E-8
2.599949E+2	9.789077E-12	1.926734E-9	2.600000E+2	4.215600E-8
2.699930E+2	9.600977E-12	1.419673E-9	2.700000E+2	5.748500E-8
2.799977E+2	9.441977E-12	1.801614E-9	2.800000E+2	1.903800E-8
2.900033E+2	9.331077E-12	1.258919E-9	2.900000E+2	-2.742600E-8
2.999953E+2	9.190377E-12	1.527584E-9	3.000000E+2	3.830000E-8
3.100018E+2	9.139877E-12	1.282466E-9	3.100000E+2	-1.437000E-8
3.199958E+2	9.092077E-12	1.748164E-9	3.200000E+2	3.455700E-8
3.300035E+2	9.074277E-12	1.650284E-9	3.300000E+2	-2.868900E-8
3.400023E+2	9.063177E-12	1.456902E-9	3.400000E+2	-1.923300E-8
3.499982E+2	9.057177E-12	2.026194E-9	3.500000E+2	1.506800E-8
END
