CV Measurement
:Program Version
13.8.2003 Moll, 4.2008 Fahrer, 6.2011 Gabrysch
:Program Library
CVIV.llb
:start
15/04/2018 20:53:51
:stop
15/04/2018 21:01:57
:elapsed [s]
486.6
:gpib bus delay [ms]
50
:device
W332-M6
:tester
Isidre
:environment
Probe Station (28-2-019)
:comment
fluence:2.41e13, SET:003137
:annealing time [min]
80
:material
n FZ
:temperature [C]
20.00
:ToolID
1102
:GuardRingConnection
1
:Region
0
:Instruments
V source: Keithley 237
- current compilance [A]: 1.000E-3
- integration time: 4 ms
- filter (averaging): 8
- source range: 1.1V
LCR meter: Agilent E4980A
- Frequency: 10000 Hz
- Signal level: 500 mV
- Averaging: 10
:LCR open correction: C[F] , G[S]
4.223E-11, 9.221E-9
:ramp up step [V], delay [s], down step [V], delay[s]
2.0, 1.0, 20.0, 0.5
:set voltage start [V], voltage stop [V], number of steps
0.0, 1000.0, 200
:measured voltage start [V], voltage stop [V], number of steps
0.0, 350.0, 59
:step mode
voltages from file
:legend
V_detector [V]	Capacitance [F]	Conductivity [S]	Bias [V]	Current Power Supply [A]
BEGIN
4.295248E-1	1.372469E-10	8.523019E-6	0.000000E+0	-3.518100E-6
5.438511E-1	1.353019E-10	4.958239E-6	5.000000E-1	-3.591700E-7
9.350725E-1	1.124079E-10	1.864329E-6	1.000000E+0	5.318000E-7
1.425308E+0	9.711694E-11	1.305729E-6	1.500000E+0	6.117800E-7
1.915753E+0	8.605694E-11	9.975890E-7	2.000000E+0	6.900400E-7
2.903328E+0	7.384394E-11	7.260330E-7	3.000000E+0	7.918100E-7
3.890612E+0	6.591594E-11	5.823670E-7	4.000000E+0	8.959600E-7
4.881609E+0	6.019894E-11	4.929580E-7	5.000000E+0	9.697000E-7
5.871989E+0	5.541024E-11	4.288250E-7	6.000000E+0	1.048500E-6
6.865005E+0	5.176724E-11	3.884420E-7	7.000000E+0	1.105700E-6
7.855604E+0	4.862654E-11	3.624240E-7	8.000000E+0	1.182700E-6
8.847522E+0	4.575324E-11	3.455700E-7	9.000000E+0	1.248900E-6
9.839366E+0	4.277654E-11	3.239000E-7	1.000000E+1	1.315700E-6
1.182579E+1	3.833394E-11	2.365800E-7	1.200000E+1	1.426900E-6
1.381357E+1	3.546874E-11	2.024620E-7	1.400000E+1	1.527000E-6
1.580314E+1	3.325124E-11	1.805500E-7	1.600000E+1	1.612400E-6
1.779109E+1	3.134324E-11	1.628630E-7	1.800000E+1	1.711100E-6
1.978136E+1	2.978534E-11	1.490730E-7	2.000000E+1	1.790800E-6
2.475807E+1	2.665184E-11	1.232580E-7	2.500000E+1	1.981600E-6
2.973797E+1	2.437034E-11	1.060090E-7	3.000000E+1	2.146200E-6
3.471596E+1	2.259994E-11	9.353904E-8	3.500000E+1	2.326500E-6
3.969766E+1	2.114724E-11	8.389824E-8	4.000000E+1	2.476400E-6
4.468043E+1	1.996164E-11	7.647434E-8	4.500000E+1	2.617500E-6
4.966210E+1	1.895864E-11	7.042274E-8	5.000000E+1	2.767600E-6
5.464681E+1	1.809534E-11	6.536254E-8	5.500000E+1	2.892900E-6
5.963209E+1	1.733244E-11	6.105004E-8	6.000000E+1	3.013400E-6
6.461612E+1	1.666884E-11	5.736764E-8	6.500000E+1	3.144200E-6
6.960372E+1	1.607864E-11	5.417584E-8	7.000000E+1	3.245800E-6
7.458784E+1	1.553934E-11	5.134374E-8	7.500000E+1	3.375900E-6
7.957494E+1	1.506004E-11	4.887704E-8	8.000000E+1	3.481500E-6
8.456159E+1	1.462324E-11	4.668104E-8	8.500000E+1	3.590900E-6
8.954795E+1	1.421784E-11	4.464004E-8	9.000000E+1	3.702600E-6
9.453551E+1	1.384924E-11	4.285734E-8	9.500000E+1	3.804500E-6
9.952473E+1	1.350894E-11	4.116794E-8	1.000000E+2	3.892800E-6
1.094998E+2	1.289074E-11	3.817644E-8	1.100000E+2	4.097200E-6
1.194771E+2	1.234884E-11	3.551144E-8	1.200000E+2	4.283000E-6
1.294547E+2	1.187164E-11	3.305984E-8	1.300000E+2	4.466700E-6
1.394354E+2	1.143814E-11	3.063824E-8	1.400000E+2	4.624100E-6
1.494156E+2	1.104264E-11	2.816494E-8	1.500000E+2	4.786800E-6
1.593952E+2	1.066764E-11	2.526774E-8	1.600000E+2	4.954000E-6
1.693775E+2	1.030684E-11	2.173454E-8	1.700000E+2	5.098300E-6
1.793621E+2	9.968040E-12	1.738914E-8	1.800000E+2	5.225100E-6
1.893508E+2	9.675540E-12	1.262134E-8	1.900000E+2	5.317500E-6
1.993407E+2	9.464240E-12	8.527043E-9	2.000000E+2	5.399800E-6
2.093300E+2	9.337040E-12	5.572043E-9	2.100000E+2	5.487600E-6
2.193245E+2	9.268940E-12	3.719743E-9	2.200000E+2	5.532400E-6
2.293187E+2	9.235840E-12	2.649343E-9	2.300000E+2	5.580000E-6
2.393158E+2	9.219340E-12	2.090443E-9	2.400000E+2	5.604400E-6
2.493112E+2	9.210040E-12	1.746143E-9	2.500000E+2	5.642100E-6
2.593049E+2	9.203940E-12	1.576643E-9	2.600000E+2	5.693700E-6
2.693023E+2	9.199840E-12	1.443143E-9	2.700000E+2	5.714800E-6
2.792979E+2	9.196440E-12	1.358243E-9	2.800000E+2	5.750600E-6
2.892915E+2	9.194240E-12	1.315043E-9	2.900000E+2	5.803100E-6
2.992874E+2	9.192140E-12	1.262743E-9	3.000000E+2	5.836900E-6
3.092864E+2	9.190540E-12	1.237343E-9	3.100000E+2	5.845000E-6
3.192823E+2	9.188940E-12	1.195043E-9	3.200000E+2	5.878100E-6
3.292814E+2	9.187740E-12	1.174843E-9	3.300000E+2	5.886000E-6
3.392793E+2	9.186740E-12	1.169443E-9	3.400000E+2	5.902700E-6
3.492748E+2	9.185740E-12	1.150343E-9	3.500000E+2	5.939800E-6
END
