CV Measurement
:Program Version
13.8.2003 Moll, 4.2008 Fahrer, 6.2011 Gabrysch
:Program Library
CVIV.llb
:start
15/04/2018 20:15:11
:stop
15/04/2018 20:23:19
:elapsed [s]
487.2
:gpib bus delay [ms]
50
:device
W332-C4
:tester
Isidre
:environment
Probe Station (28-2-019)
:comment
fluence:7.44e12, SET:003136
:annealing time [min]
80
:material
n FZ
:temperature [C]
20.00
:ToolID
1102
:GuardRingConnection
1
:Region
0
:Instruments
V source: Keithley 237
- current compilance [A]: 1.000E-3
- integration time: 4 ms
- filter (averaging): 8
- source range: 1.1V
LCR meter: Agilent E4980A
- Frequency: 10000 Hz
- Signal level: 500 mV
- Averaging: 10
:LCR open correction: C[F] , G[S]
4.223E-11, 9.221E-9
:ramp up step [V], delay [s], down step [V], delay[s]
2.0, 1.0, 20.0, 0.5
:set voltage start [V], voltage stop [V], number of steps
0.0, 1000.0, 200
:measured voltage start [V], voltage stop [V], number of steps
0.0, 350.0, 59
:step mode
voltages from file
:legend
V_detector [V]	Capacitance [F]	Conductivity [S]	Bias [V]	Current Power Supply [A]
BEGIN
5.067712E-1	1.580949E-10	6.224879E-6	0.000000E+0	-4.150800E-6
5.629166E-1	1.517199E-10	2.954069E-6	5.000000E-1	-5.153300E-7
9.857399E-1	1.206939E-10	9.189680E-7	1.000000E+0	1.168000E-7
1.482340E+0	1.035029E-10	6.363940E-7	1.500000E+0	1.446500E-7
1.979703E+0	9.126094E-11	4.738560E-7	2.000000E+0	1.662500E-7
2.976310E+0	7.791894E-11	3.330600E-7	3.000000E+0	1.940400E-7
3.971722E+0	6.936794E-11	2.599310E-7	4.000000E+0	2.316200E-7
4.969567E+0	6.323294E-11	2.147130E-7	5.000000E+0	2.492700E-7
5.967569E+0	5.821594E-11	1.820600E-7	6.000000E+0	2.656300E-7
6.964811E+0	5.449314E-11	1.604040E-7	7.000000E+0	2.882200E-7
7.962837E+0	5.142094E-11	1.450690E-7	8.000000E+0	3.043900E-7
8.961031E+0	4.880844E-11	1.366250E-7	9.000000E+0	3.191800E-7
9.956889E+0	4.623954E-11	1.401600E-7	1.000000E+1	3.531100E-7
1.195441E+1	4.113754E-11	1.476920E-7	1.200000E+1	3.734400E-7
1.394997E+1	3.756444E-11	8.630614E-8	1.400000E+1	4.098100E-7
1.594705E+1	3.523734E-11	7.609804E-8	1.600000E+1	4.337000E-7
1.794437E+1	3.323474E-11	6.807364E-8	1.800000E+1	4.556800E-7
1.994132E+1	3.159644E-11	6.185534E-8	2.000000E+1	4.806100E-7
2.493347E+1	2.830404E-11	5.027374E-8	2.500000E+1	5.449400E-7
2.992747E+1	2.590074E-11	4.259124E-8	3.000000E+1	5.941100E-7
3.492250E+1	2.403154E-11	3.707524E-8	3.500000E+1	6.347400E-7
3.991677E+1	2.249724E-11	3.287334E-8	4.000000E+1	6.817000E-7
4.491162E+1	2.124344E-11	2.961924E-8	4.500000E+1	7.239100E-7
4.990679E+1	2.018054E-11	2.699884E-8	5.000000E+1	7.634400E-7
5.490229E+1	1.926544E-11	2.480014E-8	5.500000E+1	8.003000E-7
5.989617E+1	1.845554E-11	2.285554E-8	6.000000E+1	8.504300E-7
6.489260E+1	1.775114E-11	2.138344E-8	6.500000E+1	8.796900E-7
6.988900E+1	1.712854E-11	1.938214E-8	7.000000E+1	9.092000E-7
7.488475E+1	1.655534E-11	1.824884E-8	7.500000E+1	9.440000E-7
7.988029E+1	1.604474E-11	1.721594E-8	8.000000E+1	9.805000E-7
8.487703E+1	1.557964E-11	1.631284E-8	8.500000E+1	1.007200E-6
8.987327E+1	1.514784E-11	1.545434E-8	9.000000E+1	1.038000E-6
9.486960E+1	1.475564E-11	1.471414E-8	9.500000E+1	1.068100E-6
9.986521E+1	1.439424E-11	1.408624E-8	1.000000E+2	1.104000E-6
1.098582E+2	1.374044E-11	1.290834E-8	1.100000E+2	1.161400E-6
1.198431E+2	1.317074E-11	1.193324E-8	1.200000E+2	1.285100E-6
1.297730E+2	1.267354E-11	1.111404E-8	1.300000E+2	1.859600E-6
1.395131E+2	1.223344E-11	1.040304E-8	1.400000E+2	3.987700E-6
1.493641E+2	1.184034E-11	9.798643E-9	1.500000E+2	5.208100E-6
1.591598E+2	1.148084E-11	9.234943E-9	1.600000E+2	6.881600E-6
1.689221E+2	1.115454E-11	8.742543E-9	1.700000E+2	8.829000E-6
1.786761E+2	1.086134E-11	8.324743E-9	1.800000E+2	1.084400E-5
1.884382E+2	1.058624E-11	7.916343E-9	1.900000E+2	1.279200E-5
1.981708E+2	1.033164E-11	7.435343E-9	2.000000E+2	1.498200E-5
2.075057E+2	1.010344E-11	6.940043E-9	2.100000E+2	2.043000E-5
2.169890E+2	9.884940E-12	6.326343E-9	2.200000E+2	2.466200E-5
2.269861E+2	9.675740E-12	5.532143E-9	2.300000E+2	2.468600E-5
2.363466E+2	9.497040E-12	4.414943E-9	2.400000E+2	2.992400E-5
2.459382E+2	9.360740E-12	3.027043E-9	2.500000E+2	3.326900E-5
2.561020E+2	9.275240E-12	1.682843E-9	2.600000E+2	3.192700E-5
2.655623E+2	9.234540E-12	8.982427E-10	2.700000E+2	3.634800E-5
2.750756E+2	9.213740E-12	5.070227E-10	2.800000E+2	4.033400E-5
2.847184E+2	9.202340E-12	3.114127E-10	2.900000E+2	4.326000E-5
2.945092E+2	9.195240E-12	2.324327E-10	3.000000E+2	4.497300E-5
3.042337E+2	9.189940E-12	1.641027E-10	3.100000E+2	4.723000E-5
3.138818E+2	9.186240E-12	1.377627E-10	3.200000E+2	5.011200E-5
3.235259E+2	9.183540E-12	9.744267E-11	3.300000E+2	5.302700E-5
3.334465E+2	9.181040E-12	8.006267E-11	3.400000E+2	5.367800E-5
3.434274E+2	9.179040E-12	7.719267E-11	3.500000E+2	5.383400E-5
END
